accelerometerTimestamp_sinceReboot,accelerometerAccelerationX,accelerometerAccelerationY,accelerometerAccelerationZ,gyroTimestamp_sinceReboot,gyroRotationX,gyroRotationY,gyroRotationZ
362637.9431,0.126968384,-0.306350708,-0.936889648,362637.9411,0.00206608,0.054312241,-0.000879109
362637.9732,0.119766235,-0.310745239,-0.940200806,362637.9411,0.00206608,0.054312241,-0.000879109
362638.0033,0.119888306,-0.308654785,-0.938217163,362637.9762,0.002107626,0.052203017,-0.005145494
362638.0334,0.123733521,-0.304550171,-0.935180664,362638.0113,0.001062601,0.055409463,-0.008342352
362638.0635,0.125,-0.309020996,-0.939239502,362638.0464,0.007486146,0.0554321,-0.009338641
362638.0936,0.122344971,-0.307327271,-0.938461304,362638.0815,0.008507202,0.042622828,-0.001910552
362638.1236,0.123092651,-0.308685303,-0.939620972,362638.1166,0.005300223,0.04261404,-0.001944907
362638.1538,0.117645264,-0.307952881,-0.938949585,362638.1518,0.008547149,0.054365238,-0.008265387
362638.1839,0.125991821,-0.307022095,-0.93800354,362638.1518,0.008547149,0.054365238,-0.008265387
362638.2139,0.126235962,-0.309646606,-0.941757202,362638.1868,0.00534816,0.055426241,-0.009361544
362638.244,0.115707397,-0.302536011,-0.933609009,362638.222,0.008504006,0.038358841,-0.000858337
362638.2741,0.120132446,-0.313980103,-0.942306519,362638.257,0.007479754,0.053297577,-0.008280034
362638.3042,0.117797852,-0.313613892,-0.941802979,362638.2922,-0.004317517,0.046851661,-0.003100186
362638.3343,0.139801025,-0.329147339,-0.973861694,362638.3273,-0.004213653,0.003217898,-0.007491206
362638.3644,0.157165527,-0.365158081,-1.022766113,362638.3624,-0.221219204,-0.25950827,0.033062879
362638.3945,0.176116943,-0.454223633,-1.087554932,362638.3624,-0.221219204,-0.25950827,0.033062879
362638.4246,0.002304077,-0.227127075,-0.881591797,362638.3975,-0.767393064,-0.251372047,0.016589896
362638.4547,0.166122437,-0.120681763,-0.803009033,362638.4326,-0.486855142,-0.076167739,0.058465707
362638.4848,0.07635498,-0.266525269,-0.960739136,362638.4677,-0.189369928,-0.163635004,0.042214033
362638.5149,0.07850647,-0.200927734,-0.895874023,362638.5029,-0.139172005,-0.133684828,0.04284174
362638.545,0.024078369,-0.205184937,-0.897857666,362638.538,0.079754218,-0.007461112,0.048761414
362638.5751,0.082061768,-0.154037476,-0.848907471,362638.5731,0.294482766,0.079365929,0.052387042
362638.6052,0.057113647,-0.326293945,-1.031829834,362638.5731,0.294482766,0.079365929,0.052387042
362638.6353,0.0753479,-0.210128784,-0.874801636,362638.6082,0.184606598,0.175087395,0.009960222
362638.6654,0.172531128,-0.347076416,-1.049911499,362638.6433,0.346096426,0.210731676,-0.002050101
362638.6955,0.135360718,-0.163574219,-0.844512939,362638.6784,0.328426885,0.073488332,-0.035671978
362638.7256,0.015213013,-0.306625366,-0.94102478,362638.7135,0.297624231,0.037278396,-0.052087702
362638.7557,0.008651733,-0.365646362,-1.033981323,362638.7486,0.273780417,0.529337621,-0.0966581
362638.7858,0.095947266,-0.337203979,-0.980789185,362638.7838,0.033451966,0.245338389,-0.074524835
362638.8159,0.136352539,-0.305145264,-0.949768066,362638.7838,0.033451966,0.245338389,-0.074524835
362638.846,0.133956909,-0.29006958,-0.928970337,362638.8189,0.017167802,0.085326616,-0.020861073
362638.876,0.103012085,-0.234405518,-0.877822876,362638.854,0.061875352,0.020349214,0.011374894
362638.9061,0.197875977,-0.307159424,-0.974700928,362638.8891,0.200713397,0.005742841,0.02985883
362638.9363,0.088027954,-0.239959717,-0.948608398,362638.9242,0.399216902,-0.19634528,0.101671501
362638.9663,0.114334106,0.047744751,-1.173431396,362638.9593,1.588422725,-0.218909445,-0.053955377
362638.9964,0.161453247,-0.007415771,-1.4871521,362638.9944,5.23908448,-0.90077003,-0.73801893
362639.0265,-0.318054199,-0.459579468,-1.29876709,362638.9944,5.23908448,-0.90077003,-0.73801893
362639.0566,-0.694992065,-4.452011108,-5.825942993,362639.0295,8.230057797,0.781246295,-2.514819822
362639.0867,-0.120300293,-0.354507446,-0.926712036,362639.0646,1.242257589,-0.242079213,-0.312293455
362639.1168,-0.499191284,-0.331039429,-1.578277588,362639.0997,0.778824417,-1.062899283,-0.83311695
362639.1469,-0.347686768,0.041259766,-1.244491577,362639.1349,-0.605987925,-0.564719847,-0.04760001
362639.177,-0.210083008,0.488983154,-0.645080566,362639.17,-1.898093498,-0.356334949,1.0565045
362639.2071,0.054672241,0.41192627,-0.361404419,362639.2051,-2.750975631,-0.59996199,1.186170085
362639.2372,0.081314087,0.215133667,-0.182891846,362639.2051,-2.750975631,-0.59996199,1.186170085
362639.2673,-0.049835205,-0.088867188,-0.054397583,362639.2402,-2.991283309,-0.624006873,1.400808885
362639.2974,0.315750122,-0.220123291,0.154296875,362639.2753,-2.833206589,-0.38669605,1.971989028
362639.3275,0.662918091,-0.866790771,-0.28163147,362639.3104,-2.205893135,-0.425452235,1.531238265
362639.3576,0.347900391,-1.102279663,0.033416748,362639.3455,-1.459932659,-0.061939534,0.077915838
362639.3877,0.009429932,-1.453445435,-0.205780029,362639.3806,-0.131073865,0.303375327,0.615149465
362639.4178,0.156265259,-1.510238647,-0.075805664,362639.4157,1.540079959,0.574458761,0.791493074
362639.4479,0.385543823,-1.258712769,-0.258560181,362639.4157,1.540079959,0.574458761,0.791493074
362639.4779,0.039962769,-1.167312622,0.12612915,362639.4508,1.964140959,0.872410028,-0.046640473
362639.5081,2.913513184,-0.507553101,-1.336776733,362639.486,-0.972091615,5.058734145,-1.271149425
362639.5382,0.731643677,-0.460922241,-1.072814941,362639.5211,-1.430611255,0.647607274,-0.44473139
362639.5682,-0.065048218,-0.240341187,-1.0337677,362639.5562,-0.594614097,0.286503669,-0.143965429
362639.5983,0.138885498,-0.400802612,-0.932723999,362639.5913,-0.216692363,0.152509116,-0.180798811
362639.6284,-0.008636475,-0.393585205,-0.870880127,362639.6264,-0.529348008,0.197204416,-0.135015343
362639.6585,-0.026107788,-0.377349854,-0.892852783,362639.6264,-0.529348008,0.197204416,-0.135015343
362639.6886,0.144866943,-0.30305481,-1.004882813,362639.6615,-0.633021141,0.543299243,-0.432248089
362639.7187,0.10005188,-0.333175659,-0.972122192,362639.6967,-0.050706055,0.197310409,-0.100068278
362639.7488,0.101104736,-0.332672119,-0.975128174,362639.7317,0.266385351,-0.038083736,0.104987669
362639.7789,0.234970093,-0.223327637,-1.110687256,362639.7669,1.009209156,-0.317483157,0.410328409
362639.809,0.198852539,0.50201416,-1.521255493,362639.802,4.622895582,-0.949978323,0.974333996
362639.8391,-0.540557861,-0.614120483,-1.621109009,362639.8371,8.352202615,-0.551371817,0.165493624
362639.8692,-1.249984741,-6.561935425,-3.666229248,362639.8371,8.352202615,-0.551371817,0.165493624
362639.8993,1.76373291,-3.255355835,-1.848617554,362639.8722,3.742956266,1.907083531,0.158722537
362639.9294,-0.077880859,-1.714096069,-3.033462524,362639.9073,5.825963159,-1.034928102,-3.320373587
362639.9595,-0.404632568,-0.582214355,-3.293838501,362639.9424,4.182727785,0.27145814,-2.700277034
362639.9896,-0.987472534,0.706771851,-2.349685669,362639.9776,0.678080228,0.975077018,-0.901538619
362640.0197,-0.559585571,1.342575073,-1.3021698,362640.0126,-2.783705348,0.627201335,0.820992643
362640.0498,0.155914307,2.393127441,-0.048324585,362640.0478,-3.585867046,-0.769207742,-0.218579479
362640.0799,-0.562149048,1.141372681,-0.09286499,362640.0478,-3.585867046,-0.769207742,-0.218579479
362640.11,-0.644424438,-0.327941895,1.390808105,362640.0829,-5.943039449,-1.17830657,-0.885180418
362640.1401,-0.156005859,-1.697463989,1.897476196,362640.118,-4.059398925,-2.500706133,1.123824153
362640.1702,0.406280518,-2.676071167,2.02255249,362640.1531,-1.248869686,-1.93126317,2.825728965
362640.2003,1.437957764,-2.232009888,1.993026733,362640.1882,0.060405287,-0.654488349,0.640936588
362640.2303,2.079406738,-1.389465332,-1.064712524,362640.2233,-5.338545557,1.292101312,0.559195652
362640.2604,-0.105606079,-0.441680908,-1.326095581,362640.2584,-3.863635813,0.918999634,-0.279300351
362640.2906,0.059753418,-0.146530151,-1.163146973,362640.2584,-3.863635813,0.918999634,-0.279300351
362640.3206,0.342178345,-0.452163696,-0.918701172,362640.2935,-1.740916394,0.949338099,-0.939226076
362640.3507,0.019668579,-0.160949707,-1.078552246,362640.3287,-1.40154232,0.345619187,-0.061889733
362640.3808,0.236541748,-0.040634155,-1.194152832,362640.3637,0.47986754,-0.182078726,0.284712693
362640.4109,0.078826904,0.299606323,-1.38494873,362640.3989,3.936201093,-0.580071107,0.476016076
362640.441,-0.246063232,-0.61366272,-1.616012573,362640.434,7.94757843,-1.056279463,0.422722495
362640.4711,0.373672485,-4.53314209,0.031463623,362640.4691,6.672245978,-1.747082944,0.524149251
362640.5012,1.323394775,-2.413787842,-0.134460449,362640.4691,6.672245978,-1.747082944,0.524149251
362640.5313,0.205612183,-2.357070923,-3.449493408,362640.5042,6.306095949,-0.122187695,-2.413521962
362640.5614,-0.015060425,-0.644226074,-3.39440918,362640.5393,3.894185999,1.586250651,-3.284146873
362640.5915,-1.804199219,1.031311035,-2.099105835,362640.5744,-0.253792328,0.499958427,-2.527663182
362640.6216,-1.644943237,1.344146729,-0.931610107,362640.6096,-3.402669792,0.793295501,0.907533394
362640.6517,-0.499786377,1.574493408,0.258117676,362640.6446,-4.180230272,-1.216590309,1.272326542
362640.6818,-0.659973145,0.380187988,0.95211792,362640.6798,-4.462155169,-1.851228255,1.340886695
362640.7119,-0.155792236,-0.986404419,1.458816528,362640.6798,-4.462155169,-1.851228255,1.340886695
362640.742,0.605880737,-1.744995117,2.256500244,362640.7149,-3.139355598,-2.954724499,2.43493937
362640.7721,0.821212769,-1.854492188,2.557922363,362640.75,-0.012070511,-0.618628885,1.79698499
362640.8022,1.729736328,-4.701065063,-2.061538696,362640.7851,-1.587489553,1.77195314,-2.558338271
362640.8323,1.663345337,-0.265548706,-1.858505249,362640.8202,-4.452789896,1.304506317,0.259830779
362640.8623,-0.464935303,-0.131637573,-1.342559814,362640.8553,-3.480511328,0.803059449,-0.303242169
362640.8925,-0.030044556,-0.43019104,-1.002227783,362640.8905,-1.974447392,1.059317331,-1.142700905
362640.9226,0.212188721,-0.392883301,-0.988891602,362640.8905,-1.974447392,1.059317331,-1.142700905
362640.9526,0.081832886,-0.287368774,-1.040710449,362640.9255,-1.141757879,0.356492608,-0.181564469
362640.9827,0.151397705,-0.173873901,-1.117401123,362640.9607,0.111553959,-0.048568868,0.204484699
362641.0128,0.059524536,-0.030426025,-1.265228271,362640.9958,2.719580158,-0.53500616,0.585617406
362641.0429,-0.119979858,-0.251525879,-1.581604004,362641.0309,6.984275247,-0.873078748,0.516280143
362641.073,-0.035324097,-1.989990234,-0.983200073,362641.066,7.790382151,0.350324727,0.315577399
362641.1031,-0.620620728,-4.183776855,-2.773406982,362641.1011,3.436578757,2.14644845,-0.880192583
362641.1332,0.98109436,-2.531768799,-2.273376465,362641.1011,3.436578757,2.14644845,-0.880192583
362641.1633,0.170654297,-1.644943237,-3.530029297,362641.1362,4.680308009,0.471280443,-2.782752469
362641.1934,-0.816497803,-0.104614258,-3.114242554,362641.1713,0.853949528,0.433033189,-3.483132943
362641.2235,-1.98878479,1.477630615,-0.341384888,362641.2064,-3.051110158,1.042530095,-1.605885605
362641.2536,-0.920959473,1.734924316,0.063110352,362641.2416,-3.157247247,-0.297471898,1.37552004
362641.2837,-0.628463745,1.12600708,1.014648438,362641.2767,-4.603946126,-1.392151747,1.221461231
362641.3138,-0.022277832,0.116134644,1.831939697,362641.3118,-3.096065382,-2.804919024,1.402692272
362641.3439,-0.08052063,-1.019714355,2.291488647,362641.3118,-3.096065382,-2.804919024,1.402692272
362641.374,0.494827271,-3.08366394,0.056716919,362641.3469,-0.573919737,-1.582322222,2.611397494
362641.4041,1.375656128,-2.098937988,2.347839355,362641.382,-1.746966031,-0.537086621,1.992748635
362641.4342,-0.715408325,-0.095458984,-0.583312988,362641.4171,-5.029012202,2.366238869,0.558294438
362641.4643,-0.524841309,-0.509277344,-1.332458496,362641.4522,-3.730970443,1.137359669,-0.444444568
362641.4944,0.33934021,-0.34815979,-1.120346069,362641.4873,-1.795337558,1.035047411,-1.083340642
362641.5245,0.258010864,-0.471725464,-0.889404297,362641.5224,-1.478303677,0.352471767,-0.205416273
362641.5545,0.022750854,-0.253082275,-1.063171387,362641.5224,-1.478303677,0.352471767,-0.205416273
362641.5846,0.172561646,-0.159942627,-1.124679565,362641.5575,-0.259717328,0.139969355,-0.031115842
362641.6147,0.029006958,0.123413086,-1.216125488,362641.5927,2.013357774,-0.350265338,0.505122297
362641.6448,-0.046051025,-0.188522339,-1.623809814,362641.6278,6.256383787,-0.80895915,0.487379785
362641.675,-0.603530884,-1.661300659,-0.775344849,362641.6629,8.420554242,-0.574042509,-0.178940723
362641.705,-0.581848145,-4.851257324,-3.158111572,362641.698,3.552196167,2.115438336,1.243727654
362641.7351,1.508728027,-2.864273071,-2.79234314,362641.7331,5.786269808,-0.403509385,-2.221823632
362641.7652,0.347122192,-1.551040649,-4.101104736,362641.7331,5.786269808,-0.403509385,-2.221823632
362641.7953,-0.986114502,0.170150757,-3.06312561,362641.7682,1.491005357,0.327683596,-3.570361855
362641.8254,-2.147216797,1.881866455,-0.306137085,362641.8033,-3.320293426,1.380808811,-1.924085684
362641.8555,-1.028823853,1.896636963,0.344894409,362641.8384,-3.695784759,0.135369011,1.391298737
362641.8856,-0.838241577,0.851226807,1.638946533,362641.8736,-4.579284189,-1.907335733,1.653672835
362641.9157,0.267715454,-0.216690063,2.455337524,362641.9087,-2.762191268,-3.245197077,2.38910477
362641.9458,0.190170288,-1.263259888,2.499816895,362641.9438,-1.105362587,-0.736165636,2.365415685
362641.9759,1.800109863,-4.460083008,1.945251465,362641.9438,-1.105362587,-0.736165636,2.365415685
362642.006,0.490264893,0.413696289,-1.262054443,362641.9789,-3.797505262,0.973846638,-1.93255214
362642.0361,-0.166870117,-0.518066406,-1.341400146,362642.014,-4.951753899,0.724722832,0.08338677
362642.0662,0.261474609,-0.256439209,-1.215103149,362642.0491,-2.873229106,1.251476921,-1.329616197
362642.0963,0.350784302,-0.408325195,-1.038574219,362642.0842,-1.152760996,0.309412713,-0.139219675
362642.1264,0.171478271,-0.256774902,-1.102966309,362642.1193,0.293928296,0.007679758,0.125657794
362642.1565,0.087387085,0.052520752,-1.260986328,362642.1544,3.541725151,-0.215164774,0.532541138
362642.1866,-0.156417847,-0.0987854,-1.696884155,362642.1544,3.541725151,-0.215164774,0.532541138
362642.2166,-0.491424561,-1.566650391,-1.09588623,362642.1895,8.319581555,-0.25596813,-0.177996633
362642.2468,-0.550064087,-4.905883789,-3.286117554,362642.2247,7.09020461,-1.71050629,1.59278445
362642.2769,1.723861694,-2.820755005,-2.864990234,362642.2598,6.128491334,-0.988790167,-1.188894233
362642.3069,-0.022003174,-1.379226685,-3.605957031,362642.2949,3.753131672,0.971168829,-3.665628987
362642.337,-1.30670166,0.575714111,-2.824615479,362642.33,-0.874057459,0.884760704,-1.857857928
362642.3671,-1.590652466,1.623519897,-0.967391968,362642.3651,-3.104431969,0.912890076,1.011207592
362642.3972,-1.033981323,1.879776001,0.009750366,362642.3651,-3.104431969,0.912890076,1.011207592
362642.4273,-0.916183472,1.016937256,1.417297363,362642.4002,-4.873381862,-1.304977696,1.091026259
362642.4574,-0.084228516,-0.40927124,1.565597534,362642.4353,-4.002834982,-3.005178086,1.335930552
362642.4875,0.079345703,-1.668289185,1.831939697,362642.4704,-3.432082276,-3.880800152,2.20746733
362642.5176,0.777709961,-2.15977478,1.668823242,362642.5056,-1.10928063,-3.332396428,1.088986277
362642.5477,2.008514404,-4.908279419,-0.443588257,362642.5406,-3.776777346,4.690742807,-4.366620656
362642.5778,-0.024871826,-0.76109314,-0.579956055,362642.5758,-4.599805976,0.080079656,0.165092552
362642.6079,-0.856918335,0.024032593,-1.271896362,362642.5758,-4.599805976,0.080079656,0.165092552
362642.638,0.059738159,-0.386428833,-0.968002319,362642.6109,-1.656418021,0.823238753,-0.56697661
362642.6681,0.119018555,-0.43913269,-0.945281982,362642.646,-0.895355824,0.45923896,-0.37353311
362642.6982,0.170898438,-0.35005188,-1.012741089,362642.6811,-0.272697043,0.155333398,-0.135589787
362642.7283,0.065628052,-0.231811523,-1.065475464,362642.7163,0.917710398,-0.246673432,0.468144039
362642.7584,0.11618042,0.017852783,-1.30569458,362642.7513,3.748473803,-0.66034251,0.67826665
362642.7885,-0.306976318,-0.627456665,-1.449462891,362642.7865,7.201410228,-0.193026182,0.037093839
362642.8186,0.629501343,-3.779449463,1.183425903,362642.7865,7.201410228,-0.193026182,0.037093839
362642.8487,0.274780273,-3.833236694,-1.676651001,362642.8216,7.981070344,-3.356578996,0.760172169
362642.8788,-0.250366211,-3.528335571,-2.3540802,362642.8567,7.170521288,-0.788976919,-3.200857575
362642.9089,-0.619674683,-1.595336914,-2.795913696,362642.8918,7.335384275,1.135971629,-3.302991135
362642.939,-1.348739624,-0.539077759,-3.473098755,362642.9269,6.016862274,-0.573141828,-1.563755728
362642.9691,-1.2474823,1.328979492,-2.926361084,362642.962,1.575471772,-0.829307565,1.127407968
362642.9991,0.101394653,2.220031738,-2.721878052,362642.9972,-2.433769177,-2.558891675,1.779054192
362643.0293,0.737121582,1.902435303,-1.857070923,362642.9972,-2.433769177,-2.558891675,1.779054192
362643.0594,1.126281738,0.783065796,-1.312606812,362643.0322,-6.164985696,-3.795031185,0.919505369
362643.0894,1.605041504,-0.321060181,-1.037994385,362643.0674,-7.594123691,-4.96176845,0.252031179
362643.1195,2.397186279,-1.068969727,-1.067428589,362643.1024,-7.306392038,-6.288530804,-2.038891896
362643.1496,0.957580566,-1.575531006,-0.028030396,362643.1376,-6.333464723,-7.198588342,-3.556469742
362643.1797,1.136611938,-2.329742432,-1.302764893,362643.1727,-3.656126561,-7.470525852,-1.88515746
362643.2098,1.783676147,-3.331802368,-0.867279053,362643.2078,-3.180357626,-5.30556497,-2.122768953
362643.2399,4.183609009,-3.876403809,-0.096939087,362643.2078,-3.180357626,-5.30556497,-2.122768953
362643.27,-2.347549438,-0.317657471,1.197463989,362643.2429,-1.345184505,0.090358925,-8.649022038
362643.3001,-0.289718628,-0.690460205,-0.591796875,362643.278,-2.479326808,2.269164783,-2.853965663
362643.3302,-0.268630981,0.056991577,-1.009841919,362643.3131,-2.186544205,0.69166448,0.150165534
362643.3603,0.165939331,-0.416992188,-0.940643311,362643.3483,-1.020581387,1.010897068,-0.922808754
362643.3904,0.103057861,-0.322570801,-0.955703735,362643.3833,-0.882791562,0.587565242,-0.483783452
362643.4205,0.332565308,-0.176055908,-0.998825073,362643.4185,0.182310421,0.130805152,-0.08392819
362643.4506,0.15145874,-0.318374634,-0.952224731,362643.4185,0.182310421,0.130805152,-0.08392819
362643.4807,0.166412354,-0.422485352,-0.945114136,362643.4536,0.544711784,-0.117035277,0.077905451
362643.5108,0.098937988,-0.304092407,-0.981109619,362643.4887,0.656762689,-0.285751859,0.246884088
362643.5409,0.147033691,-0.229812622,-1.013473511,362643.5238,1.504699332,-0.335018741,0.358063074
362643.571,0.168060303,-0.095916748,-1.164093018,362643.5589,3.436302321,-0.554653897,0.66033239
362643.6011,-0.127609253,-0.198944092,-1.382064819,362643.594,6.767912051,-1.299060152,0.630906591
362643.6312,0.161605835,-0.635314941,-1.695068359,362643.6292,9.900900031,-3.882968764,0.402082996
362643.6613,1.92489624,-0.940246582,-2.230560303,362643.6292,9.900900031,-3.882968764,0.402082996
362643.6914,-1.547119141,-2.379241943,-3.314804077,362643.6642,6.731043781,-10.1934813,-5.807260844
362643.7214,-0.899642944,-0.954467773,-1.578018188,362643.6994,1.859056883,-2.331930696,-5.183837736
362643.7515,-0.584472656,-0.283874512,-2.282699585,362643.7345,0.938256153,-2.85636384,-0.198817759
362643.7816,1.249206543,0.473602295,-2.198501587,362643.7696,-3.020830016,-2.655433129,1.808692779
362643.8117,1.841262817,0.34211731,-1.613830566,362643.8047,-6.605056022,-2.743034884,-0.246202585
362643.8418,1.051696777,0.044372559,-0.755371094,362643.8398,-7.94202574,-2.380409549,-0.714224118
362643.8719,0.880310059,-0.716217041,1.000366211,362643.8398,-7.94202574,-2.380409549,-0.714224118
362643.902,-0.247055054,-2.19342041,1.720428467,362643.8749,-6.282244146,-2.630667862,-0.851654416
362643.9321,0.189041138,-3.945602417,1.576126099,362643.91,-3.930998342,-1.965989991,1.380309735
362643.9622,1.050888062,-3.489151001,2.852676392,362643.9451,-0.547562432,-1.701055264,1.841242466
362643.9923,-0.887527466,-3.94480896,0.048355103,362643.9803,3.91693046,1.801640994,1.394736079
362644.0224,1.082366943,0.927932739,-1.080673218,362644.0154,-2.900505202,1.800778663,-0.646576364
362644.0525,0.098861694,-0.19229126,-1.051254272,362644.0505,-0.555534338,1.016956558,-0.803845081
362644.0826,0.019454956,-0.310562134,-0.982513428,362644.0505,-0.555534338,1.016956558,-0.803845081
362644.1127,0.029342651,-0.492828369,-0.882873535,362644.0856,0.095813079,0.178566815,-0.102816927
362644.1428,0.116821289,-0.324035645,-0.9637146,362644.1207,-0.192783036,0.22680918,-0.117476829
362644.1729,0.216934204,-0.284957886,-1.022766113,362644.1558,0.600571055,-0.16738287,0.175277012
362644.203,0.228713989,0.105209351,-1.258209229,362644.1909,2.75106032,-0.970545383,0.841333068
362644.2331,-0.112457275,-0.47303772,-1.672195435,362644.226,7.35178988,-1.885662395,1.18498631
362644.2632,0.371109009,-5.379974365,-1.058242798,362644.2611,5.000689484,-4.145543398,-0.327511023
362644.2932,1.121658325,-3.026885986,-0.306793213,362644.2611,5.000689484,-4.145543398,-0.327511023
362644.3233,-0.041610718,-2.809997559,-2.681015015,362644.2962,6.713102598,-1.290545494,-2.780155887
362644.3534,0.0418396,-1.458892822,-4.072341919,362644.3314,6.220693167,0.852136448,-2.705468067
362644.3835,-0.705245972,0.607894897,-3.251739502,362644.3665,1.280150111,0.360667113,-1.887505835
362644.4136,-0.957931519,1.542327881,-1.627838135,362644.4016,-3.189443267,-0.112322015,-0.421116608
362644.4437,-0.291168213,2.072647095,0.099365234,362644.4367,-4.619498454,-0.369655814,-0.660875142
362644.4738,-0.872909546,1.065063477,0.890914917,362644.4718,-5.044006865,-1.907326678,-0.875626594
362644.5039,-1.04888916,-0.167037964,1.522766113,362644.4718,-5.044006865,-1.907326678,-0.875626594
362644.534,-0.397857666,-1.232345581,1.672317505,362644.5069,-3.676645152,-3.275985616,1.60488399
362644.5641,0.455276489,-2.372695923,1.0831604,362644.542,-1.81732941,-2.272497196,2.373395848
362644.5942,0.254898071,-1.952224731,2.381484985,362644.5771,-0.16856851,-1.695397911,1.543888546
362644.6243,1.499404907,-0.688232422,-0.528640747,362644.6122,-4.847674901,1.341731716,-0.415306923
362644.6544,-0.020050049,-0.746612549,-1.173568726,362644.6473,-3.577166498,0.859540302,-0.145404068
362644.6845,-0.071716309,-0.167358398,-1.063568115,362644.6825,-1.494405681,0.982318153,-1.013176201
362644.7146,0.391906738,-0.537368774,-0.877532959,362644.6825,-1.494405681,0.982318153,-1.013176201
362644.7447,-0.038742065,-0.291427612,-0.956253052,362644.7176,-1.3397181,0.46509685,-0.298388292
362644.7748,0.31690979,-0.282409668,-1.023635864,362644.7527,-0.757783313,0.45787409,-0.454078553
362644.8049,0.161758423,-0.181472778,-1.071899414,362644.7878,0.466171968,-0.143649844,0.255923922
362644.835,0.262069702,0.003082275,-1.1456604,362644.8229,2.612417219,-0.683048888,0.756572374
362644.8651,0.113754272,-0.011764526,-1.56098938,362644.858,6.874967931,-1.251913146,1.081673769
362644.8952,-0.410705566,-1.623001099,-0.884719849,362644.8932,7.773382129,0.401423331,0.532833287
362644.9253,0.020507813,-4.797546387,-2.759078979,362644.8932,7.773382129,0.401423331,0.532833287
362644.9554,0.875335693,-3.06022644,-1.811981201,362644.9283,4.41945937,1.265078483,-1.252577605
362644.9854,-0.037567139,-2.299377441,-3.238494873,362644.9634,5.726267191,0.31400347,-2.680430891
362645.0156,-0.261077881,-0.772598267,-3.733596802,362644.9985,2.087279669,0.525038214,-2.621821107
362645.0457,-1.684066772,0.793823242,-1.679840088,362645.0336,-2.694277464,0.284821616,-1.929212802
362645.0757,-1.601928711,1.925979614,-0.090942383,362645.0687,-3.30980643,1.267153618,0.727822485
362645.1058,-0.980545044,1.490310669,0.445800781,362645.1038,-4.294150716,-1.61675503,1.166583334
362645.1359,-0.694717407,0.035018921,0.738800049,362645.1038,-4.294150716,-1.61675503,1.166583334
362645.166,0.319473267,-0.844238281,2.231018066,362645.1389,-4.970238368,-2.042513529,1.638428901
362645.1961,0.431503296,-1.479812622,2.409667969,362645.174,-2.098464945,-2.382341672,1.79382728
362645.2262,-0.026321411,-1.664215088,1.902481079,362645.2091,0.577542169,-2.284885689,2.12845427
362645.2563,0.977844238,-1.248336792,0.018798828,362645.2443,-5.216899283,2.275845589,0.423936097
362645.2864,-0.334701538,-0.897277832,-1.245864868,362645.2794,-4.354977848,0.943881548,0.023333819
362645.3165,0.334487915,-0.175842285,-1.191802979,362645.3145,-1.707366956,1.045100046,-1.356103465
362645.3466,0.362609863,-0.453765869,-0.916641235,362645.3145,-1.707366956,1.045100046,-1.356103465
362645.3767,0.007217407,-0.274169922,-1.007324219,362645.3496,-1.1432615,0.23955134,0.00446186
362645.4068,0.250335693,-0.195251465,-1.10446167,362645.3847,0.041681134,0.102404403,-0.015221564
362645.4369,0.049438477,0.094924927,-1.175674438,362645.4198,2.516481101,-0.420475586,0.563551785
362645.467,-0.138763428,-0.241394043,-1.596115112,362645.4549,6.91197362,-0.503878867,0.530466802
362645.4971,-0.447753906,-2.251358032,-0.867141724,362645.49,7.826371578,0.046661245,-0.069460568
362645.5272,0.13142395,-2.820251465,-1.115341187,362645.5251,4.081529794,2.304639686,0.723797383
362645.5572,1.125183105,-3.109024048,-2.681625366,362645.5251,4.081529794,2.304639686,0.723797383
362645.5873,0.398788452,-1.696212769,-3.643798828,362645.5602,5.07448195,0.678818989,-2.306060483
362645.6175,-0.600479126,0.184967041,-2.858825684,362645.5954,1.591934902,0.487411476,-3.288673981
362645.6476,-1.992645264,0.946670532,-1.252410889,362645.6305,-2.612468351,0.368457658,-2.004773074
362645.6777,-1.659896851,1.85635376,0.198806763,362645.6656,-4.334499205,0.165366857,1.200287236
362645.7078,-0.724822998,1.719726563,1.527282715,362645.7007,-4.453063137,-2.209571227,1.695651444
362645.7378,-0.289779663,-0.517730713,0.906921387,362645.7359,-4.401663595,-2.91597444,2.276688479
362645.7679,0.365066528,-1.67956543,2.840332031,362645.7359,-4.401663595,-2.91597444,2.276688479
362645.7981,0.626754761,-1.648757935,3.491592407,362645.7709,-1.237757912,-2.676409518,3.019580727
362645.8281,3.240783691,-2.364486694,-0.8097229,362645.8061,-2.985371091,4.214547234,-6.098920659
362645.8582,0.339538574,-0.914367676,-1.250961304,362645.8411,-4.612122563,1.042081352,-0.405168801
362645.8883,0.290237427,-0.166213989,-1.163040161,362645.8763,-2.64579728,1.492838677,-1.57462542
362645.9184,0.205551147,-0.317855835,-0.994674683,362645.9114,-1.03472437,0.456516145,-0.330298288
362645.9485,0.067932129,-0.227218628,-1.030456543,362645.9465,0.205240238,0.068755895,-0.008246745
362645.9786,0.15802002,-0.137329102,-1.111785889,362645.9465,0.205240238,0.068755895,-0.008246745
362646.0087,0.180618286,0.066345215,-1.434158325,362645.9816,2.61907086,-0.317355591,0.432886715
362646.0388,-0.018615723,-0.659423828,-1.421127319,362646.0167,6.906967409,-0.664559626,0.281756318
362646.0689,-0.704483032,-4.938461304,-0.841888428,362646.0518,7.362419088,-0.413430726,0.357687035
362646.099,1.68850708,-2.015075684,-0.060455322,362646.087,3.597625967,2.319090531,0.083852024
362646.1291,0.543930054,-2.618057251,-2.318847656,362646.122,5.256026978,-0.111379788,-2.391710939
362646.1592,0.255142212,-1.682907104,-3.707901001,362646.1572,2.217278149,-0.05388001,-2.835199699
362646.1893,-0.74571228,0.066665649,-2.527114868,362646.1572,2.217278149,-0.05388001,-2.835199699
362646.2194,-1.496566772,0.829711914,-1.056228638,362646.1922,-2.26067063,-0.268244504,-2.02636119
362646.2495,-0.956695557,1.545379639,0.311035156,362646.2274,-3.967722801,0.325372239,0.453789334
362646.2796,-0.561126709,0.994491577,1.032821655,362646.2625,-4.486602987,-1.247431579,0.63307973
362646.3096,-0.628631592,-0.041137695,1.432449341,362646.2976,-3.326760114,-2.72810254,1.008491967
362646.3397,-0.195220947,-1.250442505,1.948135376,362646.3327,-2.083475077,-2.362888079,3.093487975
362646.3698,0.715515137,-1.509719849,1.668624878,362646.3678,-0.129089277,-1.577106421,1.770472688
362646.4,0.781860352,-2.460510254,1.127410889,362646.3678,-0.129089277,-1.577106421,1.770472688
362646.43,0.105178833,0.046859741,-0.531860352,362646.4029,-4.601450211,2.335050855,-4.530607996
362646.4601,-0.522659302,-0.13973999,-1.269454956,362646.4381,-4.759207352,0.972531036,0.030809578
362646.4902,0.578781128,-0.198440552,-1.075942993,362646.4731,-1.898967548,1.305004861,-1.491574741
362646.5203,0.33732605,-0.463134766,-0.951171875,362646.5083,-0.944626967,0.386032391,-0.232620996
362646.5504,0.101531982,-0.318313599,-1.019012451,362646.5434,-0.181926926,0.192827777,-0.130244556
362646.5805,0.146743774,-0.239654541,-1.095626831,362646.5785,1.424472136,-0.418942404,0.49541614
362646.6106,0.121765137,0.09576416,-1.197128296,362646.5785,1.424472136,-0.418942404,0.49541614
362646.6407,-0.266281128,-0.429122925,-1.662918091,362646.6136,5.186240439,-0.605269937,0.688497449
362646.6708,-0.102050781,-3.333679199,-0.477844238,362646.6487,8.151281492,-0.542810553,0.037685061
362646.7009,0.435882568,-2.274307251,-0.339767456,362646.6838,2.820848456,1.649151586,1.92255703
362646.731,0.894760132,-2.936584473,-2.55581665,362646.719,5.998304302,-1.19361655,-1.182384934
362646.7611,0.379226685,-1.826583862,-3.418365479,362646.754,4.259564243,0.825698981,-2.775535569
362646.7912,-0.355865479,-0.06880188,-3.003494263,362646.7892,-0.416808146,0.323528,-2.916577646
362646.8213,-1.308792114,0.927032471,-1.428848267,362646.7892,-0.416808146,0.323528,-2.916577646
362646.8514,-1.379226685,1.703125,-0.106903076,362646.8243,-3.045896221,0.884656574,-1.090790036
362646.8815,-1.143356323,1.212921143,0.697494507,362646.8594,-4.17844702,-0.464247834,0.239323107
362646.9116,-0.414230347,0.270874023,1.72303772,362646.8945,-4.064564925,-2.287511299,1.069026151
362646.9417,-0.170028687,-1.219406128,1.450546265,362646.9296,-2.910183662,-3.883397533,1.713506607
362646.9718,0.744003296,-1.695556641,1.723632813,362646.9647,-1.383139344,-3.13561439,1.194225349
362647.0019,0.820159912,-2.368988037,1.665435791,362646.9999,-1.984718672,0.120534138,-6.850405064
362647.032,0.544219971,-0.287902832,-0.635910034,362646.9999,-1.984718672,0.120534138,-6.850405064
362647.0621,0.614440918,-0.686141968,-1.347793579,362647.0349,-4.453360345,0.016266588,-0.890127506
362647.0922,-0.239715576,0.004440308,-1.097640991,362647.0701,-2.381385331,0.510955951,-0.028209534
362647.1222,0.424835205,-0.670730591,-0.860900879,362647.1052,-0.680149504,0.754219205,-0.931655508
362647.1523,-0.108444214,-0.413024902,-0.901412964,362647.1403,-0.757644296,0.210677081,-0.191739343
362647.1824,0.227264404,-0.456039429,-0.961486816,362647.1754,0.037176664,-0.024027039,0.149441687
362647.2125,0.050338745,-0.277786255,-1.0234375,362647.2105,1.487266279,-0.102943959,0.356446535
362647.2426,0.163482666,-0.062423706,-1.331573486,362647.2105,1.487266279,-0.102943959,0.356446535
362647.2727,-0.07258606,-0.438858032,-1.594146729,362647.2456,5.230102703,-0.201783455,0.500593857
362647.3028,-0.623977661,-3.906112671,1.222244263,362647.2808,7.918907371,-0.415057651,-0.771774763
362647.3329,0.420455933,-1.499435425,0.276184082,362647.3158,2.969007032,1.524829634,1.280437732
362647.363,0.907119751,-2.76914978,-2.522735596,362647.351,5.803915381,-1.089740484,-3.000175071
362647.3931,-0.34753418,-1.06803894,-2.517379761,362647.3861,5.831710793,0.623447875,-4.110949468
362647.4232,-1.473876953,-0.586471558,-2.87159729,362647.4212,3.546875171,0.483715541,-1.577419875
362647.4533,-1.43208313,0.577926636,-2.310409546,362647.4212,3.546875171,0.483715541,-1.577419875
362647.4834,-0.116317749,1.475082397,-1.851013184,362647.4563,0.586226737,0.565116924,1.528966056
362647.5135,0.68145752,1.278152466,-1.814193726,362647.4914,-2.133567539,-1.622591348,1.649823235
362647.5436,0.78074646,0.843490601,-1.017272949,362647.5265,-5.598079127,-3.29707439,-0.024072313
362647.5737,0.818405151,-0.091033936,-1.102737427,362647.5616,-6.467210271,-4.774176448,-0.025051557
362647.6038,1.254425049,-0.542678833,-1.083724976,362647.5967,-6.931742797,-5.015903591,-0.518576586
362647.6339,1.400909424,-1.163574219,-1.091247559,362647.6319,-6.147717227,-6.470767722,-2.220890194
362647.664,0.020736694,-1.604248047,-0.423019409,362647.6319,-6.147717227,-6.470767722,-2.220890194
362647.6941,0.463317871,-2.044433594,-0.296875,362647.667,-4.074205036,-5.522292487,0.176180623
362647.7242,2.92225647,-4.638031006,-2.378890991,362647.7021,-0.918044358,-3.666969888,0.802442394
362647.7543,2.718460083,-2.453063965,2.699157715,362647.7372,-1.277607857,-5.230834007,-3.294040783
362647.7843,-1.060073853,-1.118560791,1.755187988,362647.7723,-0.523507695,8.450091894,-4.862596592
362647.8145,-0.628189087,-0.686172485,-0.533630371,362647.8074,-3.245508667,2.881320056,-2.163733963
362647.8446,-0.002853394,0.08883667,-1.136260986,362647.8425,-1.026423297,0.825657436,-0.481407113
362647.8746,0.210189819,-0.458953857,-0.943557739,362647.8425,-1.026423297,0.825657436,-0.481407113
362647.9047,0.171188354,-0.306289673,-0.974029541,362647.8776,-0.398055231,0.480962632,-0.395837351
362647.9348,0.152450562,-0.337677002,-0.960769653,362647.9128,0.165612401,0.035575038,0.005075452
362647.9649,0.125595093,-0.317306519,-0.954315186,362647.9479,0.680336458,-0.214264359,0.229245173
362647.995,0.063476563,-0.404541016,-0.910827637,362647.983,1.21970168,-0.534839979,0.34056291
362648.0251,-0.079376221,-0.514755249,-0.852279663,362648.0181,1.010367631,-0.547483336,-0.036636841
362648.0552,-0.076934814,-0.429122925,-0.920944214,362648.0532,1.708643675,-1.886498894,-1.970648925
362648.0853,-0.260757446,-0.587142944,-0.77885437,362648.0532,1.708643675,-1.886498894,-1.970648925
362648.1154,-0.151000977,-0.635223389,-0.70954895,362648.0883,1.809256836,-2.209131006,-3.710945069
362648.1455,0.084335327,-0.629577637,-0.736907959,362648.1234,1.383676237,-2.385505774,-4.266697787
362648.1756,0.196960449,-0.576080322,-0.834213257,362648.1585,1.1313348,-1.656651048,-2.958171961
362648.2057,0.172744751,-0.572525024,-0.893356323,362648.1936,1.714912224,-0.987383486,-1.38951069
362648.2358,0.015853882,-0.349075317,-1.237167358,362648.2287,4.160374809,-0.615680766,-0.192714859
362648.2659,-0.142089844,-0.505004883,-1.531478882,362648.2639,9.724015002,-1.526941254,-0.997588985
362648.296,-0.150619507,-1.494415283,-1.422729492,362648.2639,9.724015002,-1.526941254,-0.997588985
362648.3261,-1.411270142,-5.165649414,-7.595779419,362648.299,13.50474288,-4.05875231,-0.152075553
362648.3562,0.181396484,-0.99710083,-1.869262695,362648.3341,0.294970124,0.178835528,-0.492646985
362648.3862,0.577774048,-0.173583984,-0.862350464,362648.3692,-1.122023856,-3.57954337,0.882536698
362648.4164,1.171524048,-0.416412354,-1.439025879,362648.4043,-1.984849699,-3.757805786,0.918562876
362648.4465,1.419006348,-0.123428345,-1.243896484,362648.4394,-4.884941046,-2.421570301,1.01404013
362648.4765,2.191268921,-0.059692383,-1.146133423,362648.4745,-6.69602268,-2.315985285,-0.543055032
362648.5066,1.62852478,-0.631622314,-1.44921875,362648.4745,-6.69602268,-2.315985285,-0.543055032
362648.5367,1.193069458,-0.999649048,-0.652938843,362648.5096,-7.981333997,-1.886409412,-1.178609904
362648.5668,1.497344971,-1.264938354,0.811279297,362648.5447,-7.25948738,-1.337141758,-1.172420984
362648.5969,-0.252044678,-1.987792969,1.914382935,362648.5798,-3.810582448,-1.919527418,-0.719734997
362648.627,0.450790405,-3.693969727,1.942977905,362648.615,-1.19354571,1.61504102,2.038185359
362648.6571,0.764709473,-3.590179443,3.311767578,362648.6501,2.882265212,-0.487571,0.557678715
362648.6872,-2.584365845,-7.231262207,-6.664932251,362648.6852,-4.902057715,3.702016822,-1.291747911
362648.7173,-0.570404053,1.035995483,-0.859130859,362648.6852,-4.902057715,3.702016822,-1.291747911
362648.7474,0.889404297,-0.221221924,-1.019500732,362648.7203,-0.541988968,1.346746981,-1.411951285
362648.7775,-0.408294678,-0.418533325,-0.847366333,362648.7554,0.131014742,-0.278621777,0.455366192
362648.8076,0.03163147,-0.46156311,-0.891326904,362648.7905,-0.511668879,0.546559219,-0.37448812
362648.8377,0.086669922,-0.280548096,-0.971588135,362648.8256,-0.524964977,0.63208424,-0.455321184
362648.8678,0.213699341,-0.289001465,-0.971969604,362648.8607,0.095980858,0.050225088,0.018220816
362648.8979,0.227462769,-0.285919189,-0.997741699,362648.8959,0.841634538,-0.546905963,0.417428397
362648.928,0.257110596,-0.059310913,-1.216049194,362648.8959,0.841634538,-0.546905963,0.417428397
362648.9581,0.359832764,0.34312439,-1.628189087,362648.931,3.611593182,-1.387018504,1.157106209
362648.9881,0.714172363,-3.570571899,-0.768203735,362648.9661,7.953973213,-2.082982126,0.711534592
362649.0183,0.264404297,-2.521881104,-0.194458008,362649.0012,3.613518647,-0.784391489,-1.765863289
362649.0484,0.092666626,-3.115875244,-2.515594482,362649.0363,6.506675123,-1.251572794,-3.488419851
362649.0785,-0.10105896,-1.672180176,-3.529968262,362649.0714,5.887501355,0.789652297,-2.973371953
362649.1085,-0.576934814,-0.254898071,-3.942977905,362649.1065,0.424951028,0.647710072,-2.299472887
362649.1386,-1.259155273,1.460418701,-1.784362793,362649.1065,0.424951028,0.647710072,-2.299472887
362649.1687,-1.538024902,1.889480591,-0.94883728,362649.1416,-2.20217483,0.58544723,-0.589512812
362649.1988,-1.241119385,1.429473877,0.940673828,362649.1767,-5.287988107,-0.247741359,0.183364766
362649.2289,-0.90977478,-0.063674927,1.936004639,362649.2118,-4.489720484,-2.397709976,0.929938036
362649.259,0.049316406,-1.361450195,1.519790649,362649.247,-3.330706918,-3.392696786,2.623290373
362649.2891,0.980499268,-1.64225769,1.685241699,362649.2821,-2.263673078,-1.436812959,1.464726083
362649.3192,1.231445313,-3.733062744,1.180252075,362649.3172,-4.322471837,-0.831593356,-4.124977137
362649.3493,-0.111114502,0.843841553,-1.637619019,362649.3172,-4.322471837,-0.831593356,-4.124977137
362649.3794,-0.823226929,-0.03868103,-1.130599976,362649.3523,-4.274405508,0.519537189,0.642813318
362649.4095,0.478820801,-0.46244812,-1.087341309,362649.3874,-2.103244254,1.521266058,-1.636899447
362649.4396,0.030181885,-0.429016113,-0.947952271,362649.4225,-0.991020299,0.276431327,-0.049183259
362649.4697,0.228622437,-0.280990601,-1.033416748,362649.4576,-0.113655193,0.186545912,-0.112490859
362649.4998,0.146560669,-0.08013916,-1.114013672,362649.4927,1.786728091,-0.361543825,0.504792597
362649.5299,0.145584106,0.045013428,-1.422027588,362649.5279,5.977865606,-0.519124931,0.501249794
362649.56,-0.091186523,-0.593215942,-1.405822754,362649.5279,5.977865606,-0.519124931,0.501249794
362649.59,-1.035491943,-5.279830933,-1.330322266,362649.5629,8.023913149,-0.054143663,-0.026110697
362649.6202,1.33253479,-1.949066162,-0.256195068,362649.5981,2.470549562,2.674514146,1.714203823
362649.6503,0.886810303,-2.36378479,-3.07144165,362649.6332,5.569112457,-0.619601206,-1.460046909
362649.6804,0.374755859,-1.215515137,-3.821594238,362649.6683,2.492752336,0.342707287,-3.454147098
362649.7105,-1.082778931,0.363327026,-2.229278564,362649.7034,-2.311005973,-0.249527275,-3.087699062
362649.7405,-1.897705078,1.032196045,-0.486846924,362649.7385,-4.331520726,0.742967616,0.419201796
362649.7706,-1.209503174,1.475784302,0.934524536,362649.7385,-4.331520726,0.742967616,0.419201796
362649.8007,-0.557800293,0.657455444,2.20539856,362649.7736,-4.944392389,-1.04389896,1.454258528
362649.8308,-0.104919434,-1.049926758,1.589782715,362649.8087,-2.863993264,-2.904451208,1.647722534
362649.8609,0.423461914,-1.755523682,2.570678711,362649.8438,-2.029408645,-1.826374837,2.700527637
362649.891,0.640228271,-1.17338562,2.82951355,362649.879,1.955905399,-1.224839983,1.685212119
362649.9211,1.62461853,-0.929458618,0.42477417,362649.9141,-5.703140832,0.913795551,0.861969904
362649.9512,-0.168441772,-1.022064209,-1.317489624,362649.9492,-4.573383157,1.383305791,-0.488933739
362649.9813,0.337539673,-0.082687378,-1.203842163,362649.9492,-4.573383157,1.383305791,-0.488933739
362650.0114,0.443603516,-0.342056274,-1.010177612,362649.9843,-1.646287356,0.75326313,-0.849335069
362650.0415,0.12171936,-0.231491089,-1.048477173,362650.0194,-0.372800475,0.110448481,0.065575282
362650.0716,0.151428223,-0.060028076,-1.143066406,362650.0545,1.419726383,-0.262001255,0.403173827
362650.1017,0.020828247,-0.106658936,-1.503250122,362650.0896,5.322956477,-0.36088203,0.425484459
362650.1318,-0.26864624,-0.875045776,-1.292755127,362650.1247,7.994735557,-0.60416872,-0.138854822
362650.1619,-1.227386475,-6.084014893,-3.279678345,362650.1599,2.819731526,0.789375062,1.356504271
362650.192,1.592727661,-2.328994751,-0.562072754,362650.1599,2.819731526,0.789375062,1.356504271
362650.2221,0.323196411,-2.394317627,-2.9581604,362650.1949,5.826135731,-0.731660633,-1.253131542
362650.2522,0.104492188,-1.031570435,-3.583251953,362650.2301,3.871016497,0.846747009,-2.727440478
362650.2823,-1.0209198,0.621307373,-2.018661499,362650.2652,-1.065696401,0.064884192,-2.643113346
362650.3123,-1.538208008,1.140533447,-0.647476196,362650.3003,-4.061131045,0.295799166,-0.328029807
362650.3424,-0.984939575,1.831375122,1.007583618,362650.3354,-4.93013276,-0.184758931,1.036282852
362650.3725,-0.506164551,0.820556641,2.18081665,362650.3705,-3.704731382,-2.206435621,1.699410762
362650.4026,-0.060943604,-1.210083008,1.156936646,362650.3705,-3.704731382,-2.206435621,1.699410762
362650.4327,0.889160156,-1.28805542,2.480255127,362650.4056,-3.648766649,-2.260095121,2.497619796
362650.4628,1.176269531,-7.255325317,-0.146011353,362650.4408,-0.231565585,-1.47753642,1.143388
362650.4929,-0.480148315,0.588058472,-1.503570557,362650.4758,-5.559112819,0.890768262,0.187093458
362650.523,-0.580810547,0.051208496,-1.138809204,362650.511,-3.196966164,1.159485744,-0.980805744
362650.5531,0.400054932,-0.505386353,-1.019714355,362650.5461,-1.191075362,0.472486589,-0.422458575
362650.5832,-0.08354187,-0.423690796,-0.996566772,362650.5812,-0.42317896,0.172603731,-0.048743837
362650.6133,0.269271851,-0.287704468,-1.096221924,362650.5812,-0.42317896,0.172603731,-0.048743837
362650.6434,0.043045044,0.0675354,-1.236923218,362650.6163,1.28576512,-0.293447063,0.444249625
362650.6735,-0.054000854,-0.389511108,-1.574203491,362650.6514,5.391427947,-0.564189878,0.453296915
362650.7036,-0.331222534,-2.601989746,-0.192886353,362650.6865,7.640103167,-0.280614887,0.129930037
362650.7337,0.418441772,-3.175140381,-1.449157715,362650.7217,3.40620434,1.569201093,1.161698032
362650.7638,0.812774658,-3.067810059,-2.364547729,362650.7567,6.11213846,-1.312538144,-2.762157446
362650.7939,-0.112823486,-2.010360718,-3.491897583,362650.7919,4.211087255,0.771644534,-3.081905887
362650.824,-0.696334839,-0.282653809,-3.251861572,362650.7919,4.211087255,0.771644534,-3.081905887
362650.8541,-1.259460449,0.845123291,-1.868560791,362650.827,-0.609658294,0.631561995,-1.971889426
362650.8842,-1.181335449,1.6953125,-0.29296875,362650.8621,-3.732164072,0.541967929,0.497438811
362650.9143,-0.594009399,1.622253418,0.640655518,362650.8972,-5.11451725,-0.034728686,0.948487485
362650.9444,-0.471389771,0.607940674,1.831756592,362650.9323,-4.606202356,-1.813569559,0.947495724
362650.9744,-0.203445435,-1.348526001,2.035903931,362650.9674,-3.393421166,-3.042107342,2.525686318
362651.0045,0.959136963,-1.727050781,2.279434204,362651.0026,-0.540633952,-1.343237201,1.60700573
362651.0347,0.940124512,-3.658599854,1.266067505,362651.0026,-0.540633952,-1.343237201,1.60700573
362651.0647,-0.442047119,0.682098389,-1.543060303,362651.0376,-5.397765205,0.819169975,-1.690260141
362651.0948,-0.369049072,0.102432251,-1.283615112,362651.0728,-4.623942205,0.931701581,-0.261837737
362651.1249,0.350646973,-0.340957642,-1.096694946,362651.1078,-1.749426792,0.908844735,-0.937309133
362651.155,0.117858887,-0.435043335,-0.930801392,362651.143,-0.890022045,0.068067734,0.166422534
362651.1851,0.093048096,-0.212661743,-1.048965454,362651.1781,0.1773122,-0.03105086,0.141334492
362651.2152,0.090942383,-0.00402832,-1.173995972,362651.2132,2.805376023,-0.344392269,0.406041252
362651.2453,0.127838135,0.001235962,-1.566757202,362651.2132,2.805376023,-0.344392269,0.406041252
362651.2754,-0.250335693,-1.106063843,-1.142105103,362651.2483,7.004360808,-0.926363807,0.312897193
362651.3055,-0.716278076,-5.155502319,-2.943161011,362651.2834,7.303007693,-0.49226562,0.557055003
362651.3356,1.413925171,-2.505432129,-1.217651367,362651.3185,4.80167625,1.495922884,-0.75783631
362651.3657,0.072555542,-2.432449341,-2.654098511,362651.3537,5.566298561,-0.165125841,-3.002058725
362651.3958,-0.109008789,-1.639328003,-3.421569824,362651.3887,3.657326582,0.99264962,-2.40975279
362651.4259,-0.695480347,0.090240479,-2.445419312,362651.4239,-0.393272727,0.697781229,-1.436815356
362651.456,-1.145782471,0.826477051,-1.436737061,362651.4239,-0.393272727,0.697781229,-1.436815356
362651.4861,-1.24206543,1.724090576,0.103256226,362651.4589,-3.214423185,0.588437693,-0.017720674
362651.5162,-0.83140564,1.313232422,0.96786499,362651.4941,-4.282907916,-0.792573518,0.258516509
362651.5463,-1.002227783,-0.118392944,1.13142395,362651.5292,-4.102038798,-3.560389116,0.927384064
362651.5763,0.290664673,-1.157806396,1.642044067,362651.5643,-3.203921808,-3.638663415,2.474789048
362651.6064,0.543563843,-1.244369507,2.072738647,362651.5994,-0.597066868,-3.639531872,1.71983055
362651.6366,0.703308105,-1.281082153,1.01449585,362651.6345,0.176773709,-1.752352807,0.957339034
362651.6666,2.439056396,-4.579086304,-1.024368286,362651.6345,0.176773709,-1.752352807,0.957339034
362651.6968,0.029067993,-0.731948853,-1.454788208,362651.6696,-6.649515898,1.786157908,-0.442839214
362651.7269,0.367828369,-0.219192505,-1.177276611,362651.7048,-3.05323536,1.636503701,-1.348488156
362651.7569,0.384994507,-0.508422852,-0.933517456,362651.7399,-0.693102055,0.657093986,-0.664743118
362651.787,0.117538452,-0.414413452,-0.957061768,362651.775,-0.430959119,0.176184351,-0.135090711
362651.8171,0.114547729,-0.325805664,-0.996627808,362651.8101,0.92309531,-0.141650076,0.327923281
362651.8472,0.147354126,-0.2059021,-1.099975586,362651.8452,3.029260519,-0.322280042,0.590639329
362651.8773,-0.029830933,-0.159469604,-1.462234497,362651.8452,3.029260519,-0.322280042,0.590639329
362651.9074,-0.818664551,-1.166305542,-1.027786255,362651.8803,7.272486269,-0.211908261,0.694974257
362651.9375,-2.406799316,-6.17616272,-3.263275146,362651.9155,8.54499364,-0.171588002,1.250861198
362651.9676,2.248886108,-2.169281006,-1.254455566,362651.9505,5.221430917,2.21507385,1.423793829
362651.9977,0.377456665,-1.284469604,-3.445785522,362651.9857,5.968386883,-0.752762456,-2.561765226
362652.0278,0.149078369,-0.253036499,-3.579681396,362652.0208,3.257823656,-2.355364649,-3.679903796
362652.0579,-1.469192505,0.827255249,-2.361877441,362652.0559,-1.12795365,-1.226002986,-1.692266034
362652.088,-0.842193604,1.452972412,-1.361785889,362652.0559,-1.12795365,-1.226002986,-1.692266034
362652.1181,0.168930054,1.353088379,-1.278747559,362652.091,-3.011985658,-1.96307889,1.3070768
362652.1482,0.800613403,0.623580933,-1.270980835,362652.1261,-5.205811478,-3.499275428,1.087237113
362652.1783,1.267745972,-0.480667114,-1.044403076,362652.1612,-6.861762913,-5.179940998,-1.139285134
362652.2084,0.535217285,-1.390853882,-0.219650269,362652.1963,-6.827604676,-6.656475271,-2.078546897
362652.2385,0.505996704,-1.738693237,0.185531616,362652.2314,-4.593655672,-5.961682109,0.470722245
362652.2686,1.51600647,-3.088607788,-1.104644775,362652.2666,-3.532289571,-4.626766221,-0.194497579
362652.2987,2.875259399,-2.523544312,2.247619629,362652.2666,-3.532289571,-4.626766221,-0.194497579
362652.3288,-0.595947266,-5.706588745,-1.346481323,362652.3017,1.277983363,-4.576659378,-3.450041303
362652.3588,0.252487183,-1.791931152,-0.936706543,362652.3368,-2.321882855,5.492957235,-4.955742249
362652.3889,-0.100387573,0.028457642,-1.139694214,362652.3719,-3.409390545,1.613332336,-0.260626532
362652.4191,0.303512573,-0.290527344,-0.99520874,362652.407,-0.75413212,1.382646126,-1.247955689
362652.4491,0.209960938,-0.241989136,-0.986541748,362652.4421,-0.240974001,0.364652267,-0.249651112
362652.4792,0.158203125,-0.285934448,-0.97026062,362652.4772,0.586592655,-0.007066432,0.0392763
362652.5093,0.202316284,-0.351760864,-0.981567383,362652.4772,0.586592655,-0.007066432,0.0392763
362652.5394,0.256286621,-0.11668396,-1.035385132,362652.5123,1.296881687,-0.315569675,0.400632106
362652.5695,0.208145142,-0.285110474,-1.088348389,362652.5474,3.275838343,-1.093326431,0.996761275
362652.5996,-0.229797363,-0.530136108,-1.155609131,362652.5825,4.929362573,-1.46712639,0.86208655
362652.6297,0.148925781,-0.76600647,-1.727203369,362652.6177,6.751421757,-1.813285134,-0.065277274
362652.6598,4.440444946,-0.78263855,-2.169631958,362652.6528,6.264048897,-7.422891487,-7.232219806
362652.6899,-2.095092773,-0.828720093,-0.337844849,362652.6879,3.657917804,-3.180318478,-6.420784449
362652.72,-1.965942383,-0.078552246,-1.947189331,362652.6879,3.657917804,-3.180318478,-6.420784449
362652.7501,0.043838501,0.803390503,-1.936828613,362652.723,2.048867831,-3.012242653,0.321725572
362652.7802,1.407089233,0.879974365,-2.233505249,362652.7581,-0.876372811,-3.471304247,0.654362648
362652.8103,0.574203491,0.258483887,-1.986679077,362652.7932,-3.885789052,-4.474839272,-1.684725027
362652.8404,0.784301758,-0.45072937,-1.539505005,362652.8284,-5.619991084,-4.898631292,-1.127274278
362652.8705,0.755661011,-1.201583862,-0.617095947,362652.8635,-5.936027878,-5.077474277,-0.194959903
362652.9006,0.266677856,-2.167358398,0.627731323,362652.8986,-3.070949643,-5.165943956,1.967803871
362652.9307,-0.064987183,-3.208862305,1.085388184,362652.8986,-3.070949643,-5.165943956,1.967803871
362652.9608,2.919677734,-3.419464111,0.542602539,362652.9337,-0.158688715,-0.753103873,2.903795538
362652.9909,3.247802734,-2.192367554,1.827453613,362652.9688,0.399252056,-3.126983617,-2.508184822
362653.021,-2.392730713,0.376068115,2.567016602,362653.0039,-2.389657642,3.498342789,-2.446682845
362653.0511,0.391387939,-0.82774353,-0.994796753,362653.039,-3.351764,2.15710935,-1.287270871
362653.0812,-0.088256836,-0.378265381,-0.949890137,362653.0741,-2.349278793,1.736255063,-1.537698294
362653.1113,0.342391968,-0.328857422,-1.003875732,362653.1092,-1.207738228,0.860037514,-0.65366277
362653.1413,0.268768311,-0.314193726,-0.980712891,362653.1092,-1.207738228,0.860037514,-0.65366277
362653.1714,0.253189087,-0.297698975,-0.995941162,362653.1443,-0.144818972,0.292428137,-0.230732815
362653.2015,0.197372437,-0.371749878,-1.000595093,362653.1795,0.920251054,-0.313025025,0.315659424
362653.2316,0.187286377,-0.155578613,-1.06578064,362653.2146,2.044388927,-0.588910138,0.778469151
362653.2617,0.404495239,0.069259644,-1.451202393,362653.2497,5.141985094,-1.241373154,1.432750573
362653.2918,-0.396942139,-0.664886475,-1.688827515,362653.2848,9.527950952,-1.682111134,0.85421105
362653.3219,0.760879517,-3.286331177,-2.469833374,362653.3199,4.136847378,-5.618113023,-1.509633637
362653.352,0.706268311,-1.268981934,-0.760391235,362653.3199,4.136847378,-5.618113023,-1.509633637
362653.3821,-0.035522461,-2.379608154,-2.02192688,362653.355,4.332942854,-2.335243668,-2.571265255
362653.4122,-0.352478027,-1.973907471,-2.303741455,362653.3901,4.130909594,-1.124178087,-3.009666311
362653.4423,-0.20300293,-0.851882935,-2.432113647,362653.4252,2.073985168,0.48504579,-1.376963473
362653.4724,-0.013931274,0.200805664,-1.610687256,362653.4603,-1.727804054,0.046810382,-0.111018664
362653.5025,0.10269165,0.860717773,-0.302093506,362653.4954,-4.513161628,-0.02239612,-0.179386803
362653.5326,0.053619385,0.949050903,0.185302734,362653.5306,-6.547795395,-0.391674297,-1.646577641
362653.5627,-0.916519165,0.112976074,1.63079834,362653.5306,-6.547795395,-0.391674297,-1.646577641
362653.5928,-0.58543396,-0.828063965,2.48085022,362653.5657,-5.986444713,-1.239445291,-1.041336466
362653.6229,-0.171020508,-1.575408936,2.337402344,362653.6008,-2.861842495,-3.11755363,1.681186218
362653.653,0.416030884,-2.217285156,2.145065308,362653.6359,-0.852493844,-1.631313467,2.449565451
362653.6831,0.323898315,-4.367660522,0.517364502,362653.671,2.17183237,-0.424681516,2.151133217
362653.7131,-1.317321777,0.211715698,-1.484771729,362653.7061,-4.637239901,1.666274913,-0.923330733
362653.7432,-0.040603638,-0.032852173,-1.207519531,362653.7413,-1.852569423,1.297842555,-1.300443931
362653.7733,0.391921997,-0.463241577,-0.9974823,362653.7413,-1.852569423,1.297842555,-1.300443931
362653.8035,0.100952148,-0.528656006,-0.875427246,362653.7763,-0.711549772,0.345637297,-0.108824752
362653.8335,0.247283936,-0.25302124,-1.050323486,362653.8115,-0.497372498,0.266504927,-0.135529067
362653.8636,0.2056427,-0.143066406,-1.135757446,362653.8465,1.301005858,-0.457359568,0.4407228
362653.8937,0.182128906,0.068054199,-1.523986816,362653.8817,5.080967812,-0.804528182,0.658011179
362653.9238,-0.203155518,-1.049301147,-1.400665283,362653.9168,7.519736808,-1.059654487,0.208304737
362653.9539,-0.937835693,-4.93132019,-2.80758667,362653.9519,2.828414497,2.12519456,1.004879389
362653.984,1.852416992,-3.05569458,-1.75453186,362653.9519,2.828414497,2.12519456,1.004879389
362654.0141,-0.146011353,-2.463928223,-3.574630737,362653.987,5.5578361,-1.56627641,-3.020223881
362654.0442,-0.413528442,-0.71862793,-3.695983887,362654.0221,2.592540982,0.643611467,-3.306250045
362654.0743,-1.637481689,0.928604126,-1.557800293,362654.0572,-2.47723676,0.4740986,-2.198988091
362654.1044,-1.471725464,1.947525024,0.156326294,362654.0924,-3.45150471,1.227085561,0.561091823
362654.1345,-0.726486206,1.477416992,0.494476318,362654.1274,-4.020996675,-1.667420871,1.234326429
362654.1646,-0.430953979,0.287628174,1.527069092,362654.1626,-4.067623299,-2.043538846,1.487255094
362654.1947,0.140899658,-0.994522095,2.366668701,362654.1626,-4.067623299,-2.043538846,1.487255094
362654.2248,0.964324951,-1.588806152,2.662490845,362654.1976,-2.284931495,-1.922823612,2.00517601
362654.2549,0.375198364,-1.948806763,1.49647522,362654.2328,1.427394689,-0.780370648,0.823477639
362654.285,-0.240432739,-0.048751831,-0.393585205,362654.2679,-5.671037491,1.35975892,1.141654549
362654.315,-0.848373413,-0.110992432,-1.15977478,362654.303,-3.971238173,1.604175589,-0.907868153
362654.3451,0.778015137,-0.342254639,-1.05921936,362654.3381,-1.429193921,0.749080636,-0.73731692
362654.3752,0.152420044,-0.47227478,-0.912887573,362654.3732,-0.805924744,0.247186357,-0.060071593
362654.4053,0.200485229,-0.267044067,-1.031356812,362654.3732,-0.805924744,0.247186357,-0.060071593
362654.4354,0.180725098,-0.080841064,-1.147720337,362654.4083,0.497800734,-0.207729228,0.315715617
362654.4655,0.210510254,0.048141479,-1.463531494,362654.4435,3.779041566,-0.687629791,0.61247432
362654.4956,-0.087417603,-0.803787231,-1.386367798,362654.4785,7.849691281,-1.070215519,0.610158169
362654.5257,-0.561203003,-5.370925903,-2.518798828,362654.5137,5.965363663,-0.459543626,1.404514141
362654.5558,1.81539917,-2.206680298,-0.646850586,362654.5488,5.166074984,0.884823821,-1.232951706
362654.5859,0.350402832,-2.779067993,-3.025131226,362654.5839,4.730259857,-0.14828188,-3.004566358
362654.616,-0.030776978,-1.42288208,-3.693496704,362654.5839,4.730259857,-0.14828188,-3.004566358
362654.6461,-1.150192261,0.473327637,-1.983734131,362654.619,0.215597804,-0.172031152,-2.898522212
362654.6762,-1.632141113,1.314208984,-0.664474487,362654.6541,-3.11560606,0.961629919,-1.197815556
362654.7063,-1.071762085,1.926940918,1.237594604,362654.6892,-4.644098073,1.175516642,0.630184341
362654.7364,-1.071350098,0.575790405,1.576019287,362654.7244,-3.787026255,-2.570403456,1.162743322
362654.7665,-0.417709351,-0.760162354,1.452758789,362654.7595,-3.763208008,-2.165717486,2.962135277
362654.7966,0.846618652,-1.191009521,2.805328369,362654.7946,-0.512463034,-2.339445604,2.440417226
362654.8267,0.478179932,-1.023162842,2.544067383,362654.7946,-0.512463034,-2.339445604,2.440417226
362654.8568,1.025466919,-0.472213745,0.50944519,362654.8297,-2.757952048,3.544209081,-3.582705074
362654.8869,-0.449295044,-0.716674805,-1.336654663,362654.8648,-5.122203133,1.301659664,-0.434343198
362654.917,0.79826355,-0.241012573,-1.143829346,362654.8999,-2.269566121,1.352176634,-1.778720232
362654.9471,0.227279663,-0.391891479,-0.926712036,362654.935,-0.578093443,0.159943596,0.060331784
362654.9772,0.118225098,-0.321105957,-0.953903198,362654.9701,0.134447024,0.0748295,0.01657658
362655.0073,0.166427612,-0.015853882,-1.138565063,362655.0053,2.710547248,-0.313082549,0.483939247
362655.0374,0.204727173,0.030014038,-1.651687622,362655.0053,2.710547248,-0.313082549,0.483939247
362655.0675,-0.370635986,-1.072036743,-1.290435791,362655.0404,7.423452349,-0.562334187,0.134216661
362655.0976,-1.334014893,-5.580673218,-2.990585327,362655.0755,8.007633778,-0.942396303,2.044815565
362655.1276,2.624298096,-3.270111084,-1.736175537,362655.1106,6.001448963,0.50347886,-0.029035114
362655.1578,-0.067810059,-2.726348877,-3.289550781,362655.1457,5.152855585,0.041386855,-4.137014358
362655.1879,-0.664505005,-1.088867188,-3.337097168,362655.1808,1.446388887,0.534316667,-3.161211362
362655.2179,-1.564437866,0.612319946,-2.133483887,362655.2159,-3.076160384,1.207211455,-0.869661646
362655.248,-1.612518311,1.76133728,-0.50730896,362655.2159,-3.076160384,1.207211455,-0.869661646
362655.2781,-1.211410522,1.930358887,1.412200928,362655.251,-4.980084607,0.340024152,1.036266607
362655.3082,-0.630279541,0.383544922,1.547851563,362655.2862,-4.365955398,-2.454199085,1.9163247
362655.3383,0.114181519,-0.823776245,2.139556885,362655.3212,-4.236287683,-2.640436336,3.099429487
362655.3684,1.061218262,-1.050064087,2.332580566,362655.3564,-1.11620112,-2.132510264,1.779532763
362655.3985,0.89390564,-5.498001099,0.30015564,362655.3915,-2.133307082,3.580993727,-4.688954228
362655.4286,-1.013824463,0.415725708,-1.232528687,362655.4266,-5.156773627,1.488354447,-0.306335963
362655.4587,-0.740432739,0.164031982,-1.231292725,362655.4266,-5.156773627,1.488354447,-0.306335963
362655.4888,0.467147827,-0.44619751,-1.107376099,362655.4617,-2.643334921,1.665191539,-1.994799802
362655.5189,-0.064727783,-0.423095703,-1.013549805,362655.4968,-0.576049733,0.184407927,0.066818179
362655.549,0.191650391,-0.30657959,-1.073074341,362655.5319,0.625065213,-0.073593794,0.170496638
362655.5791,0.117553711,0.063034058,-1.351593018,362655.567,3.589142734,-0.420994636,0.405678796
362655.6092,-0.046325684,-0.55632019,-1.438049316,362655.6021,7.791526245,-0.970888931,0.286040013
362655.6393,-0.769256592,-5.184204102,-0.524963379,362655.6373,4.438643717,-0.461814237,1.88450898
362655.6694,1.600769043,-1.929931641,-0.131988525,362655.6373,4.438643717,-0.461814237,1.88450898
362655.6995,0.656906128,-3.084487915,-2.484481812,362655.6724,5.824934113,-1.001324069,-1.194311635
362655.7296,-0.167648315,-2.029220581,-3.620101929,362655.7075,5.486772842,0.523472275,-3.662269143
362655.7597,-0.810623169,-0.080337524,-2.816162109,362655.7426,1.171470768,0.67507272,-2.691883016
362655.7898,-1.16242981,1.099060059,-1.56930542,362655.7777,-2.389667229,0.939102772,-0.958982737
362655.8199,-1.186569214,1.917480469,-0.161941528,362655.8128,-4.34500218,0.282202131,0.80430421
362655.85,-0.510742188,1.608566284,1.281768799,362655.8479,-5.060378914,-1.612725934,0.537430968
362655.88,-0.60357666,-0.259506226,1.097015381,362655.8479,-5.060378914,-1.612725934,0.537430968
362655.9101,0.052261353,-1.210647583,2.377975464,362655.883,-4.940290589,-2.761238921,2.110557294
362655.9403,0.71182251,-1.633560181,2.116897583,362655.9182,-1.805683939,-1.65718368,2.404135385
362655.9703,0.028411865,-3.696762085,0.821228027,362655.9533,1.076539727,-0.602214226,2.120766256
362656.0004,-1.064865112,0.328353882,-0.813690186,362655.9884,-5.837979341,0.797088109,1.370364959
362656.0305,-0.478652954,0.258514404,-1.249969482,362656.0235,-3.403390443,1.803706808,-1.788429318
362656.0606,0.593429565,-0.406219482,-1.05229187,362656.0586,-1.180147347,0.508309834,-0.335959103
362656.0907,0.165710449,-0.421112061,-0.977935791,362656.0586,-1.180147347,0.508309834,-0.335959103
362656.1208,0.23500061,-0.341262817,-1.037384033,362656.0937,-0.289767373,0.148349524,-0.01969594
362656.1509,0.12789917,-0.130462646,-1.095291138,362656.1288,1.089971647,-0.274330093,0.338895238
362656.181,0.197418213,0.017791748,-1.442169189,362656.1639,4.093251964,-0.265848192,0.317812856
362656.2111,-0.133407593,-0.812942505,-1.168579102,362656.199,7.506638849,-0.514200746,-0.088422008
362656.2412,-1.877838135,-5.968063354,-1.773132324,362656.2341,5.274506653,0.377857551,2.241087608
362656.2713,1.583175659,-2.657836914,-0.534713745,362656.2693,6.903437656,-0.344561912,0.38387017
362656.3014,0.601745605,-3.075042725,-2.95451355,362656.2693,6.903437656,-0.344561912,0.38387017
362656.3315,0.446258545,-1.864959717,-3.972244263,362656.3044,6.201120531,0.038257108,-2.179835968
362656.3616,-0.44934082,0.241287231,-3.144821167,362656.3395,2.197429077,-0.444758022,-2.822745159
362656.3917,-0.960159302,1.344329834,-2.390060425,362656.3746,-2.211669532,-0.087671263,-1.680194191
362656.4218,-0.85168457,2.209655762,-0.811737061,362656.4097,-5.10552269,-0.576003394,-0.317342275
362656.4519,-0.398544312,1.516937256,0.015609741,362656.4448,-6.488732341,-3.040114764,-0.174491114
362656.4819,0.047546387,-0.119171143,-0.028640747,362656.48,-6.506358739,-4.789436361,-0.423870051
362656.512,0.350296021,-1.245437622,0.905700684,362656.48,-6.506358739,-4.789436361,-0.423870051
362656.5422,0.748550415,-1.876190186,1.325057983,362656.515,-5.245132519,-4.644413391,-0.175606445
362656.5722,0.87272644,-2.69317627,0.674346924,362656.5502,-2.627439045,-4.151926463,-0.552974241
362656.6023,0.388092041,-2.073638916,1.411849976,362656.5852,-0.406979484,-4.157087669,0.048071389
362656.6324,4.643997192,-3.940734863,-0.918701172,362656.6204,-2.624566027,9.661135638,-5.74204642
362656.6625,0.113693237,-0.617172241,-1.161056519,362656.6555,-3.09362859,1.479255224,-0.992581177
362656.6926,-0.25100708,-0.022628784,-1.069503784,362656.6906,-0.435934969,1.112614641,-0.922634316
362656.7228,0.212249756,-0.374588013,-0.945419312,362656.6906,-0.435934969,1.112614641,-0.922634316
362656.7528,0.161132813,-0.316314697,-0.939727783,362656.7257,-0.037577736,0.227340214,-0.138181309
362656.7829,0.165557861,-0.361663818,-0.938705444,362656.7609,0.063347015,0.103679524,-0.046939279
362656.813,0.176986694,-0.329681396,-0.961166382,362656.7959,0.183024681,-0.0585472,0.105098723
362656.8431,0.156402588,-0.279449463,-0.984329224,362656.8311,0.642872173,-0.242659249,0.357637501
362656.8732,0.151519775,-0.242675781,-0.992752075,362656.8662,1.516900871,-0.515957634,0.57599647
362656.9033,0.047561646,-0.244125366,-1.035903931,362656.9013,2.760649298,-0.292211888,0.378026928
362656.9334,0.270217896,-0.276855469,-1.159957886,362656.9013,2.760649298,-0.292211888,0.378026928
362656.9635,-0.266220093,-0.493209839,-1.142471313,362656.9364,5.201647359,-1.621945265,0.212682974
362656.9936,0.352340698,-0.584503174,-1.576461792,362656.9715,6.639537034,-1.796687248,-0.939819961
362657.0237,1.361831665,-1.621368408,-3.657165527,362657.0066,5.691835713,-5.961030167,-5.308204163
362657.0538,-2.010681152,0.187850952,-1.021759033,362657.0418,1.139637471,-1.329619393,-5.238574751
362657.0839,-1.335617065,0.308166504,-1.646347046,362657.0768,0.491647234,-2.948829858,0.853782814
362657.114,0.80128479,0.565322876,-1.80569458,362657.112,-1.76563266,-3.73888083,0.19775276
362657.1441,0.70425415,0.183624268,-1.525177002,362657.112,-1.76563266,-3.73888083,0.19775276
362657.1742,0.519729614,-0.236618042,-1.290893555,362657.147,-3.715980574,-4.355170928,-1.447155611
362657.2043,0.708312988,-0.755874634,-1.170822144,362657.1822,-4.39443471,-5.375980547,-1.683302899
362657.2343,1.144699097,-1.023391724,-0.592788696,362657.2173,-4.502402989,-5.54250588,-1.657268102
362657.2644,0.398498535,-1.809020996,-0.343429565,362657.2524,-3.151250341,-5.432274446,-1.654188689
362657.2946,1.314651489,-1.677246094,0.875244141,362657.2875,-0.435316583,-3.602619394,-0.813302765
362657.3247,2.359329224,-2.681976318,0.423782349,362657.3226,0.029113677,4.985110524,-8.081657406
362657.3547,1.458465576,-1.589538574,-1.708908081,362657.3226,0.029113677,4.985110524,-8.081657406
362657.3848,0.498580933,-0.587936401,-0.987945557,362657.3577,-2.899941145,0.652004153,-3.369278013
362657.4149,-0.134216309,0.112701416,-1.132843018,362657.3929,-3.037989828,1.126054017,-0.346525994
362657.445,0.277633667,-0.399139404,-0.965194702,362657.428,-0.836513279,0.69935063,-1.129476179
362657.4751,0.157623291,-0.276000977,-0.996856689,362657.4631,-0.062588014,0.273991606,-0.33641983
362657.5052,0.178222656,-0.477890015,-0.941360474,362657.4982,0.672172804,0.026794064,-0.090714724
362657.5353,0.133117676,-0.329345703,-0.975540161,362657.5333,1.364837035,-0.226116758,0.437843391
362657.5654,0.185211182,-0.237518311,-1.052688599,362657.5333,1.364837035,-0.226116758,0.437843391
362657.5955,0.154312134,-0.163284302,-1.292617798,362657.5684,3.230800028,-0.699260881,0.94740784
362657.6256,-0.057479858,-0.489807129,-1.452514648,362657.6035,6.776764398,-1.478513001,0.983013238
362657.6557,1.141876221,-1.113830566,-2.486419678,362657.6386,8.790339486,-3.181602388,0.261302442
362657.6858,-1.566802979,-4.067245483,-5.378097534,362657.6737,5.665109294,-5.888539987,-3.540178653
362657.7159,0.225006104,-1.570587158,-2.296524048,362657.7089,4.769063179,-2.871503911,-3.068819646
362657.746,-0.641891479,-1.084823608,-2.347991943,362657.744,2.002169301,-1.179510052,-1.796020126
362657.7761,-0.25541687,-0.214782715,-2.122650146,362657.744,2.002169301,-1.179510052,-1.796020126
362657.8062,1.094589233,0.222106934,-1.3855896,362657.7791,-2.060072282,-0.613372604,1.277669376
362657.8363,1.679351807,0.023452759,-0.937194824,362657.8142,-5.943299906,-1.274012323,-0.00994664
362657.8664,0.747406006,-0.428482056,-0.110351563,362657.8493,-8.510806641,-2.005575751,-1.960041555
362657.8965,0.434539795,-1.137313843,1.276321411,362657.8844,-7.797323414,-2.103597389,-1.750328005
362657.9266,-0.386184692,-2.149795532,2.285766602,362657.9195,-4.436900412,-2.890077595,0.606287531
362657.9567,0.179977417,-2.811721802,2.942855835,362657.9546,-0.272022731,-3.407154822,2.982978241
362657.9868,0.51625061,-3.38710022,2.376037598,362657.9546,-0.272022731,-3.407154822,2.982978241
362658.0168,1.418792725,-1.419677734,2.223968506,362657.9897,1.686455282,0.465398852,1.650149206
362658.0469,3.440765381,-1.500793457,-1.402206421,362658.0249,-3.972348711,7.982406719,-3.014604877
362658.0771,1.175521851,-0.297164917,-1.315368652,362658.06,-3.899227363,3.262506026,-3.001436877
362658.1071,0.617523193,-0.059051514,-1.107391357,362658.0951,-1.075056879,0.961697031,-0.682824117
362658.1372,0.158294678,-0.383453369,-0.932937622,362658.1302,-0.103443036,0.172470573,-0.057037986
362658.1673,0.181503296,-0.306625366,-0.988937378,362658.1653,0.606192456,-0.284996852,0.282558995
362658.1974,0.299362183,-0.106369019,-1.18536377,362658.1653,0.606192456,-0.284996852,0.282558995
362658.2275,0.402420044,0.312088013,-1.502288818,362658.2004,3.260939555,-1.095967488,0.870910135
362658.2576,0.023864746,-1.28616333,-1.569366455,362658.2355,7.674042492,-2.428471883,1.104783882
362658.2877,-1.095535278,-4.158370972,-1.628601074,362658.2706,5.69101759,-5.331894578,-0.098962001
362658.3178,0.383239746,-3.341873169,-1.424530029,362658.3058,6.366694582,-1.587362787,-2.136103933
362658.3479,-0.194946289,-2.348770142,-3.383270264,362658.3408,5.636863275,0.919039848,-2.111855319
362658.378,0.241851807,-1.020446777,-4.014892578,362658.376,0.813492382,0.400756742,-2.309905555
362658.4081,-0.438064575,1.154403687,-2.00402832,362658.376,0.813492382,0.400756742,-2.309905555
362658.4382,-1.109680176,1.85760498,-1.406585693,362658.4111,-2.276365171,0.400006796,-2.173628939
362658.4683,-1.645568848,1.84967041,1.263565063,362658.4462,-5.838500256,0.186978942,-1.557355353
362658.4984,-1.218154907,-0.166564941,1.621231079,362658.4813,-4.173765183,-2.975753351,1.31714781
362658.5285,0.175582886,-1.274703979,1.797195435,362658.5164,-4.092636774,-2.435125259,2.547726373
362658.5586,0.844528198,-1.478927612,2.723358154,362658.5515,-0.665142059,-2.570149656,1.150361488
362658.5887,0.310821533,-1.455047607,1.998855591,362658.5866,-0.35156283,3.085688641,-1.117084225
362658.6187,0.246459961,-0.007720947,0.030349731,362658.5866,-0.35156283,3.085688641,-1.117084225
362658.6488,-0.741455078,-0.290878296,-1.306900024,362658.6217,-4.705208033,1.130672738,-0.055474711
362658.679,0.679931641,-0.308410645,-1.095352173,362658.6569,-2.252498987,1.770470824,-1.961540382
362658.7091,0.245727539,-0.464752197,-0.887176514,362658.692,-1.069924435,0.375980555,-0.207364641
362658.7392,0.066467285,-0.363967896,-0.980957031,362658.7271,-0.748048927,0.374788524,-0.215639083
362658.7692,0.144775391,-0.237747192,-1.092544556,362658.7622,0.779732022,-0.129822445,0.218847659
362658.7993,0.165588379,0.061828613,-1.241104126,362658.7973,4.264624782,-0.478879507,0.436167197
362658.8294,-0.075897217,-0.402008057,-1.553848267,362658.7973,4.264624782,-0.478879507,0.436167197
362658.8595,-0.764450073,-2.443222046,-0.436645508,362658.8324,7.957383124,-1.011345011,0.157749151
362658.8896,0.154052734,-2.775634766,-1.002960205,362658.8676,4.516133715,0.48097435,2.503820434
362658.9197,1.304367065,-3.117080688,-2.338516235,362658.9026,6.022259969,-1.666550284,-0.678690625
362658.9498,0.009643555,-2.386062622,-3.429595947,362658.9378,4.414116004,-1.261853129,-3.450138508
362658.9799,-0.715393066,-0.436935425,-2.737030029,362658.9729,0.307534386,-0.375863643,-2.745841589
362659.01,-1.344406128,0.821807861,-1.543167114,362659.008,-2.704047004,1.07172127,-0.142873532
362659.0401,-0.968261719,1.643463135,-0.272384644,362659.008,-2.704047004,1.07172127,-0.142873532
362659.0702,-0.441680908,1.706466675,1.192047119,362659.0431,-4.417570656,0.759274684,1.423799422
362659.1003,-0.245697021,0.531555176,1.970932007,362659.0782,-4.469869814,-0.893923309,1.09126035
362659.1304,-0.408325195,-0.864425659,1.936462402,362659.1133,-3.243279601,-2.338049042,1.883957706
362659.1605,0.215835571,-1.39704895,2.139144897,362659.1485,-1.146377399,-0.771087135,2.295638734
362659.1906,0.819335938,-1.629226685,1.487243652,362659.1835,0.286669051,-0.934532788,1.678871399
362659.2207,0.076690674,0.171768188,-0.192993164,362659.2187,-5.637706964,1.886068527,-0.033353696
362659.2508,-0.522445679,-0.419937134,-1.333343506,362659.2187,-5.637706964,1.886068527,-0.033353696
362659.2809,0.588973999,-0.280960083,-1.129562378,362659.2537,-3.051810036,1.921821465,-1.790700196
362659.311,0.188140869,-0.362030029,-0.937789917,362659.2889,-1.236642581,0.502911873,-0.353621986
362659.341,0.139160156,-0.324157715,-1.019882202,362659.324,-0.320621159,0.17817826,-0.041238517
362659.3711,0.141555786,-0.18019104,-1.122451782,362659.3591,1.297019106,-0.292054496,0.381532447
362659.4012,0.159072876,0.010009766,-1.50289917,362659.3942,5.338705347,-0.358296633,0.338321327
362659.4313,-0.014770508,-0.702133179,-1.323638916,362659.4293,7.815435573,-1.031241754,-0.221946514
362659.4614,-1.68598938,-5.495742798,-1.493331909,362659.4293,7.815435573,-1.031241754,-0.221946514
362659.4915,1.784255981,-2.038513184,-0.223266602,362659.4644,3.139214983,1.754796257,2.286292903
362659.5216,0.458969116,-3.054626465,-2.836929321,362659.4996,5.836231242,-1.64923441,-1.748941031
362659.5517,0.040985107,-1.722610474,-3.750564575,362659.5346,3.873427723,0.638719506,-3.31705156
362659.5818,-1.100082397,0.119812012,-2.604187012,362659.5698,-1.309343683,0.282255661,-3.046614209
362659.6119,-1.762786865,1.36428833,-0.961685181,362659.6048,-3.813674378,1.275395303,-0.187155244
362659.642,-1.293991089,2.043838501,0.541503906,362659.64,-4.895070113,-0.642582155,1.728667185
362659.6721,-0.617523193,0.92527771,1.395233154,362659.64,-4.895070113,-0.642582155,1.728667185
362659.7022,0.009262085,-0.613235474,1.703857422,362659.6751,-4.681524009,-2.344414263,2.156124513
362659.7323,0.402145386,-1.489486694,2.398040771,362659.7102,-3.530865845,-3.023625803,2.589242923
362659.7624,0.928344727,-1.691955566,1.682556152,362659.7453,-0.336189467,-1.392618866,1.58774282
362659.7925,1.040603638,-7.325119019,-2.278488159,362659.7805,-3.813011251,2.276499395,-3.391191568
362659.8226,-0.571807861,0.037460327,-1.699203491,362659.8155,-4.404117964,1.553948637,-0.674067377
362659.8527,0.116073608,-0.258453369,-1.152984619,362659.8507,-2.106110881,1.396764609,-1.65434768
362659.8828,0.104705811,-0.404815674,-0.957443237,362659.8507,-2.106110881,1.396764609,-1.65434768
362659.9129,0.016876221,-0.369903564,-0.985946655,362659.8858,-1.025141784,0.420797029,-0.201424461
362659.943,0.175979614,-0.234420776,-1.061019897,362659.9209,-0.12607085,0.16379,-0.036004074
362659.9731,0.154647827,0.024673462,-1.156967163,362659.956,1.914313747,-0.381242962,0.467754684
362660.0031,0.039871216,-0.152603149,-1.584716797,362659.9911,6.075728787,-1.037541728,0.75955618
362660.0333,-0.305969238,-1.449523926,-0.99571228,362660.0262,7.133093754,-0.659378979,0.2202855
362660.0634,-1.091781616,-4.503433228,-2.424758911,362660.0613,3.46155548,1.364752081,0.747343456
362660.0934,0.995254517,-2.944839478,-1.416473389,362660.0613,3.46155548,1.364752081,0.747343456
362660.1235,0.024215698,-2.594223022,-3.051727295,362660.0964,5.878455662,-0.615848812,-1.620752169
362660.1536,0.126159668,-1.215423584,-3.585113525,362660.1316,3.996387469,0.983470237,-2.069574441
362660.1837,-0.64352417,0.261962891,-2.396774292,362660.1667,-0.993968418,-0.017978734,-2.640465365
362660.2138,-1.300064087,1.495025635,-0.403671265,362660.2018,-3.932885458,0.829205299,-1.59679597
362660.2439,-1.232284546,1.727645874,0.529464722,362660.2369,-4.492293097,0.365766267,-0.06722005
362660.274,-1.030593872,0.979919434,1.342880249,362660.272,-4.165551994,-2.279136457,1.71556097
362660.3041,-0.360488892,-0.765396118,1.210922241,362660.272,-4.165551994,-2.279136457,1.71556097
362660.3342,0.856048584,-1.239700317,2.401626587,362660.3071,-4.012244995,-2.158863841,2.716643756
362660.3643,0.522079468,-1.484390259,1.630523682,362660.3422,-0.965877395,-1.850323579,1.186593528
362660.3944,2.085281372,-7.088272095,-2.883453369,362660.3773,-0.373757615,0.412737505,-0.589634252
362660.4245,0.16557312,0.076202393,-1.453186035,362660.4124,-4.75370899,0.394580605,-0.010284862
362660.4546,-0.216018677,0.040664673,-1.155273438,362660.4475,-2.280243266,1.421863837,-1.43565688
362660.4847,0.250152588,-0.547363281,-0.917556763,362660.4827,-1.091945049,0.497116302,-0.393630123
362660.5148,-0.06803894,-0.371780396,-0.972732544,362660.4827,-1.091945049,0.497116302,-0.393630123
362660.5449,0.182128906,-0.280532837,-1.045791626,362660.5178,-0.501699602,0.255810471,-0.128151844
362660.575,0.117050171,-0.08770752,-1.084655762,362660.5529,0.963929559,-0.200033225,0.314337697
362660.605,0.208450317,0.035934448,-1.473617554,362660.588,3.923186225,-0.340450524,0.457427745
362660.6352,-0.142868042,-0.752471924,-1.280136108,362660.6231,7.674652888,-0.311299297,0.334709548
362660.6653,-1.442398071,-4.836898804,-0.72618103,362660.6582,6.122989776,0.292031326,2.653589955
362660.6954,1.672714233,-1.806655884,-0.052093506,362660.6934,5.764902734,-0.459036294,0.277607379
362660.7255,0.348403931,-3.160858154,-2.419586182,362660.6934,5.764902734,-0.459036294,0.277607379
362660.7555,-0.019989014,-2.002227783,-3.071899414,362660.7284,5.229316537,-0.541880844,-2.560519133
362660.7856,-0.058700562,-0.391342163,-3.107208252,362660.7636,2.390526898,0.685076086,-2.962124625
362660.8157,-1.197296143,0.866043091,-1.753143311,362660.7987,-2.040819225,-0.362496971,-2.680403727
362660.8458,-1.607223511,1.625350952,-0.502960205,362660.8338,-4.212018828,0.428555616,-0.57102568
362660.8759,-0.94593811,1.705993652,0.857574463,362660.8689,-5.071398009,-1.991769391,0.754518012
362660.906,-0.464736938,0.018356323,0.768173218,362660.904,-4.260379171,-3.946181822,1.359092331
362660.9361,0.103500366,-1.5756073,1.198669434,362660.904,-4.260379171,-3.946181822,1.359092331
362660.9662,0.907913208,-1.576950073,2.294830322,362660.9391,-3.888558207,-3.361440596,1.763190274
362660.9963,0.302230835,-1.532928467,1.844604492,362660.9742,-0.057986072,-3.615287785,0.738311611
362661.0264,1.889312744,-1.433609009,-0.537033081,362661.0093,-4.789036887,3.466127861,-3.355444755
362661.0565,0.294998169,-0.974151611,-1.321670532,362661.0445,-4.409638697,0.469476152,0.116112492
362661.0866,-0.034393311,-0.001235962,-1.142669678,362661.0796,-1.354794255,1.112029545,-1.341476319
362661.1167,0.251022339,-0.54119873,-0.884185791,362661.1147,-0.647290358,0.350195563,-0.359490528
362661.1468,-0.108230591,-0.358337402,-0.946090698,362661.1147,-0.647290358,0.350195563,-0.359490528
362661.1769,0.139938354,-0.388198853,-0.998794556,362661.1498,-0.29336264,0.165241955,-0.216729914
362661.207,0.083602905,-0.270828247,-1.021224976,362661.1849,0.669905389,-0.166767414,0.311290775
362661.2371,0.169692993,-0.119445801,-1.215484619,362661.22,2.624334332,-0.369092822,0.569121786
362661.2672,-0.278717041,-0.467697144,-1.472198486,362661.2551,6.527337524,-0.646605659,0.764504866
362661.2973,0.054260254,-2.704162598,0.944015503,362661.2902,8.046842966,0.825157294,0.251588029
362661.3274,-0.807327271,-4.854064941,-2.075698853,362661.3253,5.621868613,2.178932624,0.295752827
362661.3574,1.184143066,-2.522949219,-1.229171753,362661.3253,5.621868613,2.178932624,0.295752827
362661.3875,0.416946411,-1.996856689,-2.836837769,362661.3604,7.124727167,0.622086201,-2.383341156
362661.4176,-0.314712524,-1.112579346,-3.177307129,362661.3956,5.996306931,-0.25841238,-3.961667305
362661.4477,-1.680007935,0.174209595,-2.668869019,362661.4307,2.138426743,-0.508458971,-2.671257366
362661.4778,-0.95022583,1.327484131,-1.738555908,362661.4658,-0.701783427,0.273224349,0.124321686
362661.5079,-0.376846313,1.383407593,-1.713348389,362661.5009,-2.88627753,-2.436524483,1.077993813
362661.538,-0.328948975,0.909423828,-1.020004272,362661.536,-5.583050909,-3.358079953,1.403159924
362661.5681,0.167114258,-0.251403809,-1.171401978,362661.536,-5.583050909,-3.358079953,1.403159924
362661.5982,1.545120239,-0.608230591,-1.066574097,362661.5711,-6.726924404,-4.218468206,1.418142602
362661.6283,1.497451782,-1.775680542,-0.642196655,362661.6062,-6.698555347,-7.02227536,-2.102767016
362661.6584,0.143325806,-2.294616699,0.02571106,362661.6413,-6.067191225,-7.149695368,-2.029290934
362661.6885,1.199111938,-2.462249756,-0.025787354,362661.6764,-2.805829825,-5.10205845,0.772579037
362661.7186,2.80406189,-2.911117554,0.934844971,362661.7115,-1.450251003,-4.285251497,-1.611217253
362661.7487,0.176452637,-3.392074585,-1.397262573,362661.7467,-1.192895366,9.200400247,-6.988144288
362661.7788,2.721603394,-2.612350464,-2.479751587,362661.7467,-1.192895366,9.200400247,-6.988144288
362661.8089,0.136047363,-0.247436523,-1.051116943,362661.7818,-3.652668713,2.194373632,-1.23925381
362661.839,-0.213287354,-0.229415894,-0.960388184,362661.8169,-1.588910083,0.980652346,-0.491220862
362661.8691,0.341369629,-0.384658813,-0.964385986,362661.852,-0.906304612,0.78626156,-0.635747152
362661.8992,0.174072266,-0.227035522,-0.991912842,362661.8871,-0.042265964,0.345951017,-0.23053867
362661.9293,0.259857178,-0.321365356,-0.994369507,362661.9222,0.843846027,-0.087037164,0.215402594
362661.9593,0.228408813,-0.277587891,-0.990921021,362661.9573,1.846823386,-0.506736971,0.622160503
362661.9894,0.240615845,-0.08531189,-1.065643311,362661.9573,1.846823386,-0.506736971,0.622160503
362662.0196,-0.010772705,-0.468505859,-1.058013916,362661.9924,3.723044875,-1.031227107,1.188130971
362662.0496,-0.239440918,-0.599899292,-1.082015991,362662.0276,5.237528128,-1.193900709,0.906684112
362662.0797,0.258361816,-0.814529419,-1.602783203,362662.0626,6.392011657,-1.284799191,-0.130371589
362662.1098,4.662521362,-1.248153687,-2.50920105,362662.0978,6.246414509,-6.38383522,-6.987491813
362662.1399,-2.213516235,-1.329940796,-0.619476318,362662.1329,3.128545827,-3.703561189,-8.215294297
362662.17,-2.556121826,-0.463821411,-2.221832275,362662.168,1.764602016,-1.406316835,0.995616915
362662.2001,0.815689087,0.715393066,-2.047805786,362662.168,1.764602016,-1.406316835,0.995616915
362662.2302,1.760848999,0.862014771,-2.236724854,362662.2031,-0.422934482,-3.570242279,1.129699086
362662.2603,0.674530029,0.334671021,-1.791641235,362662.2382,-3.287602058,-4.722723111,-1.824990792
362662.2904,0.924591064,-0.165206909,-1.538330078,362662.2733,-5.089618825,-5.070901063,-0.635358863
362662.3205,0.982772827,-1.207275391,-0.995285034,362662.3085,-6.03813667,-5.649250702,0.196314653
362662.3506,0.347808838,-2.474563599,0.185684204,362662.3435,-4.694995875,-5.26704341,2.349533125
362662.3807,0.545440674,-3.188430786,1.808181763,362662.3787,-0.957229578,-1.006655717,2.462045556
362662.4108,1.983200073,-3.303726196,2.134017944,362662.3787,-0.957229578,-1.006655717,2.462045556
362662.4409,0.31690979,-3.009414673,1.134841919,362662.4138,2.667074872,-1.619515397,-1.122402824
362662.471,2.616622925,-2.93522644,-3.656677246,362662.4489,-1.247551421,7.731865045,-4.715942703
362662.5011,0.338607788,-0.197357178,-1.224533081,362662.484,-3.334044924,2.193263094,-1.717278975
362662.5312,0.33946228,-0.373062134,-0.969604492,362662.5191,-1.719089126,1.502723266,-1.316503857
362662.5612,0.154418945,-0.32611084,-0.986190796,362662.5542,-0.884268019,0.754138245,-0.584482633
362662.5913,0.307907104,-0.253158569,-1.009460449,362662.5894,0.267992835,0.012285428,0.036989443
362662.6215,0.224853516,-0.266143799,-1.040802002,362662.5894,0.267992835,0.012285428,0.036989443
362662.6515,0.261856079,-0.086181641,-1.11050415,362662.6244,1.714733259,-0.718399955,0.72235901
362662.6816,0.385223389,-0.022003174,-1.454925537,362662.6596,4.578170455,-1.511121012,1.402468833
362662.7117,-0.159286499,-1.033935547,-1.807891846,362662.6947,8.905571803,-2.245606992,1.439118191
362662.7418,1.143798828,-2.502426147,-1.689025879,362662.7298,6.145285228,-7.52015013,-0.916581484
362662.7719,-0.179260254,-1.288223267,-0.361190796,362662.7649,2.91028433,-2.264681884,-3.923001402
362662.802,-0.391540527,-2.409820557,-1.707138062,362662.8,3.644014505,-1.85294626,-3.196016747
362662.8321,-0.205062866,-2.002685547,-1.853744507,362662.8,3.644014505,-1.85294626,-3.196016747
362662.8622,-0.214508057,-1.481399536,-2.514053345,362662.8351,3.355900955,-0.797879334,-1.767596475
362662.8923,-0.34765625,0.001617432,-1.525177002,362662.8703,-0.469021017,0.514764005,-0.831062321
362662.9224,-0.467910767,0.679244995,-0.672424316,362662.9053,-3.601031085,0.59183349,-0.063388294
362662.9525,-0.603546143,1.27583313,0.68132019,362662.9405,-5.48161643,0.849196584,0.01737899
362662.9826,-0.41242981,0.40763855,1.327697754,362662.9755,-5.693686078,-2.104527631,-0.761752755
362663.0127,-1.406112671,-0.616424561,2.616714478,362663.0107,-3.555220986,-2.652693802,2.265241147
362663.0428,0.645324707,-1.549163818,2.007522583,362663.0107,-3.555220986,-2.652693802,2.265241147
362663.0729,1.018356323,-1.305999756,1.717956543,362663.0458,-1.671756231,-2.873430175,2.096210579
362663.103,-0.242141724,-7.137176514,-0.710281372,362663.0809,0.106948821,-0.102260858,1.199091743
362663.1331,-1.388183594,0.749725342,-1.883331299,362663.116,-5.586382524,1.957438581,0.666127162
362663.1632,0.37008667,-0.117462158,-1.190841675,362663.1511,-2.422940231,2.10176833,-2.32130921
362663.1933,0.338485718,-0.449127197,-0.986541748,362663.1862,-0.589721337,0.232439635,0.033798177
362663.2234,0.078048706,-0.466308594,-0.917556763,362663.2214,-0.24683189,0.127247967,-0.035276764
362663.2535,0.147521973,-0.356414795,-1.002319336,362663.2214,-0.24683189,0.127247967,-0.035276764
362663.2836,0.180389404,-0.154846191,-1.098358154,362663.2564,0.790028868,-0.225902373,0.278314449
362663.3136,0.21673584,-0.050170898,-1.526504517,362663.2916,3.684858341,-0.683684318,0.623194342
362663.3437,-0.210968018,-0.960372925,-1.190261841,362663.3266,7.058957741,-0.505270901,0.235933702
362663.3738,-1.039993286,-4.803146362,-2.114440918,362663.3618,5.075242548,-1.07422837,2.52428443
362663.4039,2.195022583,-2.67628479,-0.675933838,362663.3969,6.177703355,-2.247412882,-1.817388532
362663.434,-0.3046875,-3.192749023,-2.700683594,362663.432,4.644160391,-0.940707327,-4.354185824
362663.4641,-0.616790771,-1.823425293,-3.227523804,362663.432,4.644160391,-0.940707327,-4.354185824
362663.4942,-1.199859619,-0.054840088,-2.585922241,362663.4671,1.816039907,0.573574591,-3.139029095
362663.5243,-1.255737305,0.778030396,-2.12928772,362663.5022,-1.939410312,1.286816269,-1.27158352
362663.5544,-1.307235718,1.905090332,-0.000671387,362663.5373,-4.941139072,0.804516731,0.553457339
362663.5845,-0.60194397,1.769760132,1.489517212,362663.5725,-5.148215293,-1.142808496,1.310117863
362663.6146,-0.663543701,-0.144836426,1.284332275,362663.6075,-4.061945973,-2.803892908,2.642802555
362663.6447,0.66835022,-1.056945801,2.059738159,362663.6427,-3.143674713,-2.299039857,2.925759959
362663.6748,1.073348999,-0.365905762,2.396697998,362663.6427,-3.143674713,-2.299039857,2.925759959
362663.7049,2.821273804,-5.009429932,-0.024810791,362663.6778,-0.371015624,-1.183006783,1.14704452
362663.735,0.481704712,-0.289031982,-1.157318115,362663.7129,-6.219272637,2.446861277,-1.433188663
362663.7651,0.528793335,-0.112457275,-1.140777588,362663.748,-2.23114949,1.436874478,-1.428695377
362663.7952,0.04536438,-0.33833313,-0.903701782,362663.7831,-0.26002732,0.180297604,-0.00330445
362663.8253,0.058639526,-0.311416626,-0.924224854,362663.8182,0.264042835,-0.061640195,0.131519411
362663.8554,0.131912231,-0.150588989,-1.118331909,362663.8534,2.127554654,-0.523177197,0.436590373
362663.8855,0.262542725,0.182235718,-1.653213501,362663.8534,2.127554654,-0.523177197,0.436590373
362663.9156,-0.243896484,-1.323455811,-0.97102356,362663.8885,7.059288506,-1.779467249,0.170315543
362663.9456,-1.501434326,-4.386535645,-2.124069214,362663.9236,6.949177447,-1.862666798,1.48856457
362663.9757,2.192169189,-2.945388794,-1.918441772,362663.9587,5.665152437,1.726400036,0.549413329
362664.0058,0.278274536,-2.559768677,-3.221343994,362663.9938,5.451280362,-0.477313302,-3.475013232
362664.036,-0.415481567,-1.277587891,-3.685165405,362664.0289,1.872012629,0.627770186,-3.308684973
362664.066,-1.320983887,0.516403198,-2.261749268,362664.064,-1.849498265,1.39586952,-1.538701241
362664.0961,-1.562484741,1.445251465,-1.075027466,362664.064,-1.849498265,1.39586952,-1.538701241
362664.1262,-1.324310303,1.918167114,0.370941162,362664.0991,-3.949378947,0.769238901,0.718408743
362664.1563,-0.637390137,0.770599365,1.242004395,362664.1342,-5.105966905,-1.381145701,1.525004337
362664.1864,-0.198669434,-0.848571777,1.457962036,362664.1693,-4.199615955,-2.915473499,2.515308512
362664.2165,0.760116577,-1.366546631,2.577911377,362664.2045,-1.944160859,-3.055453241,3.051349842
362664.2466,1.028274536,-1.38041687,2.079238892,362664.2396,0.329451136,0.178170537,1.020184842
362664.2767,2.513442993,-4.828414917,-1.584350586,362664.2747,-5.687748294,0.931167884,0.574605767
362664.3068,-0.130111694,-0.227508545,-1.334487915,362664.2747,-5.687748294,0.931167884,0.574605767
362664.3369,0.424591064,-0.130355835,-1.191665649,362664.3098,-4.024529625,1.986767974,-1.46327466
362664.367,0.124023438,-0.402923584,-0.9324646,362664.3449,-1.208794438,0.781188771,-0.642195731
362664.3971,0.049041748,-0.362365723,-0.968017578,362664.38,-0.643666328,0.252838916,-0.033820015
362664.4272,0.256454468,-0.336578369,-1.011245728,362664.4151,0.350092765,-0.118162593,0.201502491
362664.4573,0.207015991,-0.165328979,-1.071105957,362664.4502,2.093669657,-0.656354426,0.659500152
362664.4874,0.360244751,0.067810059,-1.358551025,362664.4854,5.599031474,-1.352202467,1.272215489
362664.5175,-0.24130249,-0.677368164,-1.266998291,362664.4854,5.599031474,-1.352202467,1.272215489
362664.5475,-0.227081299,-4.073486328,-0.025939941,362664.5204,7.038364049,-0.155519819,0.565889507
362664.5776,1.18560791,-2.334594727,-0.827911377,362664.5556,3.848697077,1.697741493,1.034748072
362664.6077,0.451553345,-3.046905518,-2.210632324,362664.5907,5.449112016,-1.46159314,-2.479992865
362664.6378,-0.230178833,-2.50213623,-3.253585815,362664.6258,4.609123311,0.40687642,-2.940280845
362664.6679,-0.448654175,-0.674346924,-3.096954346,362664.6609,-0.378337187,0.378418413,-2.567707271
362664.6981,-1.09185791,0.826446533,-1.526184082,362664.696,-3.386810668,0.605770611,-1.53410862
362664.7281,-1.526092529,1.97668457,-0.035797119,362664.696,-3.386810668,0.605770611,-1.53410862
362664.7582,-1.045562744,1.442901611,0.505691528,362664.7311,-4.163004946,0.412955884,0.280479599
362664.7883,-0.888473511,-0.152511597,0.840011597,362664.7663,-5.093701451,-2.405368162,1.517784507
362664.8184,0.408813477,-0.889755249,2.219360352,362664.8014,-4.444770053,-1.950530075,2.987442498
362664.8485,0.466598511,-1.316619873,2.010314941,362664.8365,-1.171846273,-2.637385153,2.461218112
362664.8786,0.406112671,-1.138092041,1.779647827,362664.8716,0.46180172,0.94591647,1.986783154
362664.9087,2.120285034,-1.211791992,-0.20513916,362664.9067,-5.932186534,1.140044668,0.616289298
362664.9388,-0.091247559,-0.574172974,-1.114349365,362664.9067,-5.932186534,1.140044668,0.616289298
362664.9689,0.408615112,-0.2293396,-1.092224121,362664.9418,-2.982283955,1.963143871,-2.157296304
362664.999,0.120376587,-0.409606934,-0.903076172,362664.9769,-1.000495826,0.551457038,-0.347752379
362665.0291,0.111343384,-0.278823853,-0.973419189,362665.012,-0.543556505,0.270526567,-0.112578743
362665.0592,0.155334473,-0.230651855,-1.040756226,362665.0471,0.728177484,-0.159927351,0.250158444
362665.0893,0.187057495,0.009796143,-1.115524292,362665.0822,3.347526379,-0.54107071,0.662618448
362665.1194,-0.045959473,-0.318267822,-1.47479248,362665.1174,7.117137158,-0.956790955,0.734733388
362665.1495,-0.344985962,-1.645584106,-0.838134766,362665.1174,7.117137158,-0.956790955,0.734733388
362665.1796,-0.426391602,-4.037628174,-2.208740234,362665.1525,7.384401353,-0.706429045,1.762991336
362665.2097,1.558959961,-2.855163574,-1.427383423,362665.1876,4.552421948,1.452408963,-0.258966051
362665.2397,0.133712769,-2.764221191,-2.597488403,362665.2227,5.438353378,-0.336858719,-3.012467424
362665.2699,-0.055725098,-1.55317688,-3.300018311,362665.2578,2.898651642,0.088980207,-3.372814425
362665.3,-1.028274536,0.117660522,-1.997512817,362665.2929,-1.64097435,0.021219002,-2.9806541
362665.33,-1.898010254,1.20715332,-0.715057373,362665.328,-3.412477682,0.942635722,-0.282920652
362665.3601,-1.567550659,1.625366211,0.083145142,362665.328,-3.412477682,0.942635722,-0.282920652
362665.3902,-0.407989502,1.117370605,1.173660278,362665.3631,-5.434157301,-0.40121667,1.480778552
362665.4203,-0.188247681,-0.540512085,1.148483276,362665.3982,-4.800580093,-3.198865531,1.745397429
362665.4504,0.474121094,-1.218307495,2.496292114,362665.4333,-3.661159936,-2.675361297,2.04249462
362665.4805,0.527648926,-1.402084351,1.790390015,362665.4685,0.165519723,-2.755613793,2.133274591
362665.5106,2.988540649,-5.832092285,-2.04119873,362665.5036,-5.105275016,2.97507105,-0.569707681
362665.5407,0.171005249,-0.287811279,-1.372634888,362665.5387,-4.184453513,1.226626964,-0.675899099
362665.5708,0.259094238,-0.113815308,-1.163864136,362665.5387,-4.184453513,1.226626964,-0.675899099
362665.6009,0.233673096,-0.423416138,-0.949905396,362665.5738,-1.425026607,1.066690292,-1.251830056
362665.631,0.100463867,-0.413574219,-0.922286987,362665.6089,-0.660338782,0.195478687,-0.072515746
362665.6611,0.149398804,-0.405944824,-0.954193115,362665.644,-0.242001448,0.141404799,-0.0990893
362665.6912,0.130996704,-0.309921265,-1.023773193,362665.6791,0.562037778,-0.144633083,0.295291302
362665.7213,0.149856567,-0.084991455,-1.084106445,362665.7143,2.742358175,-0.383459244,0.524541801
362665.7514,0.186508179,-0.05456543,-1.542221069,362665.7494,6.826527694,-0.787013104,0.686334962
362665.7815,-0.347366333,-1.474533081,-0.697662354,362665.7494,6.826527694,-0.787013104,0.686334962
362665.8116,-1.258972168,-4.267913818,-1.995941162,362665.7845,7.300614044,-0.279795699,0.431986833
362665.8417,1.759521484,-2.616973877,-1.553237915,362665.8196,4.720159552,2.969685605,1.641184207
362665.8718,0.189651489,-2.855697632,-2.561737061,362665.8547,5.940348591,-0.826101917,-1.929607749
362665.9019,-0.025283813,-2.072601318,-3.763931274,362665.8898,4.884650229,0.908641802,-2.158282739
362665.932,-0.455108643,-0.368148804,-3.405990601,362665.9249,0.02901301,0.092871618,-2.286213275
362665.9621,-1.109436035,0.794525146,-2.277420044,362665.96,-3.740148761,0.444105281,-1.329615931
362665.9921,-1.14781189,1.706710815,-0.701416016,362665.96,-3.740148761,0.444105281,-1.329615931
362666.0222,-0.943664551,1.412109375,-0.127548218,362665.9951,-5.233924871,-0.891887056,-0.016111858
362666.0523,-0.393051147,0.126861572,-0.203353882,362666.0303,-6.248868879,-3.325548908,0.660135849
362666.0824,0.298233032,-0.650360107,0.827301025,362666.0654,-6.280775679,-4.530545145,0.126795496
362666.1125,0.490341187,-1.472900391,0.940155029,362666.1005,-4.4513438,-4.776862512,0.382090646
362666.1426,1.167694092,-1.996490479,0.688949585,362666.1356,-2.787000211,-4.463268903,0.120726951
362666.1727,0.455245972,-1.850280762,1.485977173,362666.1707,-0.254458651,-2.698363286,1.03614277
362666.2028,6.114364624,-4.875595093,-0.975265503,362666.1707,-0.254458651,-2.698363286,1.03614277
362666.2329,-0.727081299,-0.626663208,-1.033187866,362666.2058,-3.420687675,-1.054469046,-5.096968617
362666.263,0.146499634,-0.109039307,-1.02394104,362666.2409,-0.641453241,0.443118047,-0.191924432
362666.2931,0.037811279,-0.408721924,-0.915084839,362666.276,0.237624809,-0.010403905,0.088786595
362666.3232,0.132476807,-0.355209351,-0.937301636,362666.3111,0.138627122,-0.053078398,0.048188835
362666.3533,0.109100342,-0.386779785,-0.921844482,362666.3462,0.226382008,-0.085819567,0.043703805
362666.3834,0.094085693,-0.383392334,-0.92779541,362666.3814,0.324635076,-0.02912433,0.045991727
362666.4135,0.140930176,-0.361282349,-0.941146851,362666.3814,0.324635076,-0.02912433,0.045991727
362666.4436,0.16784668,-0.299667358,-0.985702515,362666.4165,0.619466183,-0.172841019,0.214872093
362666.4737,0.10055542,-0.28213501,-0.978027344,362666.4516,1.449329017,-0.432584979,0.46794803
362666.5038,0.081130981,-0.309310913,-1.016204834,362666.4867,2.552219658,-0.555463232,0.534768872
362666.5339,-0.037384033,-0.441619873,-1.034637451,362666.5218,3.816556983,-1.094971199,0.312349115
362666.564,0.060028076,-0.489685059,-1.18812561,362666.5569,5.446370025,-2.172664608,-0.041987131
362666.594,0.484817505,-0.556991577,-1.698059082,362666.592,6.216495492,-5.593107538,-1.066576309
362666.6241,1.193435669,-0.259918213,-1.571960449,362666.592,6.216495492,-5.593107538,-1.066576309
362666.6542,-0.800064087,-1.022506714,-2.528869629,362666.6271,3.666862829,-7.253496332,-6.984709875
362666.6843,-2.065216064,0.077819824,-1.028533936,362666.6622,-0.607122432,-2.180876731,-5.709319899
362666.7144,-0.931350708,0.244644165,-1.304290771,362666.6974,-1.227339626,-2.810216584,0.69840068
362666.7445,0.732086182,-0.057296753,-1.812789917,362666.7325,-3.145037719,-3.006902483,1.531502716
362666.7746,1.468811035,0.096923828,-1.082595825,362666.7676,-4.67510366,-3.63232376,-1.312515507
362666.8047,0.949264526,-0.781143188,-1.270111084,362666.8027,-5.365532434,-4.975806505,-2.896071305
362666.8348,0.190567017,-1.317153931,-0.530395508,362666.8027,-5.365532434,-4.975806505,-2.896071305
362666.8649,1.594345093,-1.55178833,0.147857666,362666.8378,-4.737608583,-4.40541519,-0.656210616
362666.895,1.366424561,-2.147064209,1.231933594,362666.8729,-2.287569623,-4.215129134,-2.073707933
362666.9251,0.504608154,-3.292907715,0.852325439,362666.908,-0.155917962,3.875557719,-4.568907981
362666.9552,0.190124512,-0.418304443,0.057281494,362666.9431,-1.948026171,-1.59208324,-2.217665106
362666.9853,0.009414673,-0.420410156,-0.955718994,362666.9782,-1.765445706,0.879363541,-0.341104597
362667.0154,-0.11680603,-0.238174438,-0.968383789,362667.0134,-0.476328199,0.659754484,-0.874372778
362667.0455,0.204666138,-0.395217896,-0.939834595,362667.0134,-0.476328199,0.659754484,-0.874372778
362667.0756,0.091125488,-0.383178711,-0.938949585,362667.0485,-0.098102865,0.202375742,-0.298671918
362667.1057,0.151168823,-0.431503296,-0.943984985,362667.0836,0.337021971,0.052279983,-0.274229959
362667.1358,0.165359497,-0.363174438,-0.963989258,362667.1187,0.819788095,-0.183792736,0.172248466
362667.1659,0.137634277,-0.304412842,-0.987884521,362667.1538,1.771814922,-0.419659327,0.626945937
362667.1959,0.177124023,-0.215774536,-1.122802734,362667.1889,3.651431941,-0.950938925,1.054467182
362667.226,-0.179595947,-0.280487061,-1.390060425,362667.2241,6.913467653,-1.912341943,0.713693084
362667.2561,-0.176086426,-0.936981201,-1.528747559,362667.2241,6.913467653,-1.912341943,0.713693084
362667.2863,1.060287476,-1.589126587,-1.727157593,362667.2591,8.235447502,-4.72656765,0.161230968
362667.3163,-0.800765991,-1.524703979,-2.625930786,362667.2943,3.782053601,-4.984382949,-4.24034634
362667.3464,0.04460144,-1.537368774,-2.719512939,362667.3293,3.669157409,-2.391148213,-3.525427404
362667.3765,-0.763290405,-0.531814575,-2.024200439,362667.3645,0.174386451,-0.979321831,-1.752139221
362667.4066,0.053436279,0.27482605,-1.506469727,362667.3996,-2.932014126,-0.855833714,1.149376384
362667.4367,0.965499878,0.241378784,-1.217803955,362667.4347,-6.753618865,-1.329019117,0.111157681
362667.4668,0.950363159,-0.246536255,-0.473083496,362667.4347,-6.753618865,-1.329019117,0.111157681
362667.4969,0.610824585,-1.436264038,0.707366943,362667.4698,-8.418647951,-1.963257056,-1.397611227
362667.527,-0.054275513,-2.250747681,2.680007935,362667.5049,-7.170594791,-2.677076639,-1.920028891
362667.5571,-0.180541992,-2.660354614,2.760635376,362667.54,-1.989400509,-2.289209597,1.302127049
362667.5872,0.034698486,-2.926712036,2.112182617,362667.5752,0.59391262,-1.360981843,2.652259174
362667.6173,0.425735474,-1.725128174,2.252761841,362667.6102,3.926064037,-0.742345501,2.814412661
362667.6474,5.619155884,-3.592330933,-3.116394043,362667.6454,-6.006094048,1.801153636,-0.307027586
362667.6775,1.734313965,0.329711914,-1.482315063,362667.6454,-6.006094048,1.801153636,-0.307027586
362667.7076,0.642944336,-0.173706055,-1.108276367,362667.6804,-2.257695347,1.906871277,-1.763072829
362667.7377,0.133270264,-0.465744019,-0.903930664,362667.7156,-0.296711832,0.477371625,-0.252037837
362667.7678,0.088272095,-0.352264404,-0.960891724,362667.7507,-0.590207098,0.567392063,-0.323075262
362667.7979,0.235092163,-0.264541626,-0.981781006,362667.7858,0.268486585,-0.128671161,0.123908896
362667.828,0.218933105,-0.130767822,-1.121246338,362667.8209,1.612758691,-0.799322501,0.66244188
362667.858,0.316497803,0.300979614,-1.338729858,362667.8561,5.845871353,-1.902983861,1.257218962
362667.8882,-0.761856079,-0.984954834,-1.561630249,362667.8561,5.845871353,-1.902983861,1.257218962
362667.9183,0.028213501,-3.840164185,-1.18560791,362667.8911,7.429174417,-2.754569833,0.569685844
362667.9484,0.446411133,-2.844528198,-0.682983398,362667.9263,3.965544867,-1.70575814,-2.83425188
362667.9784,-0.420013428,-2.764938354,-2.18359375,362667.9614,6.333092413,-1.429147049,-3.416255642
362668.0085,-0.115936279,-1.677688599,-3.612472534,362667.9965,5.047896145,1.741083641,-2.020883867
362668.0386,-0.085891724,0.411239624,-2.960144043,362668.0316,-0.422491865,0.674128364,-1.631050613
362668.0687,-0.530334473,1.321670532,-1.683639526,362668.0667,-3.562563321,0.312587201,-1.558176938
362668.0988,-0.865036011,1.453643799,-0.296005249,362668.0667,-3.562563321,0.312587201,-1.558176938
362668.1289,-1.025466919,0.92338562,1.394073486,362668.1018,-5.859260129,0.015633022,-1.361048156
362668.159,-0.808654785,-0.15234375,2.019790649,362668.1369,-4.694546866,-2.022797348,0.107672402
362668.1891,-0.201629639,-1.473144531,2.049468994,362668.172,-2.8579644,-2.890393979,2.281573515
362668.2192,0.352371216,-1.900177002,2.334182739,362668.2072,-0.200889165,-0.990882613,2.049468374
362668.2493,2.745117188,-6.272140503,-2.83996582,362668.2422,-4.255034206,-1.351255713,-2.26932617
362668.2794,0.043701172,0.284957886,-1.423233032,362668.2774,-4.718235684,0.55517854,-0.176643747
362668.3095,-0.158889771,0.180709839,-1.243560791,362668.2774,-4.718235684,0.55517854,-0.176643747
362668.3396,0.331832886,-0.502182007,-0.939453125,362668.3125,-1.989295048,1.050814124,-1.154601773
362668.3697,0.261566162,-0.497039795,-0.897521973,362668.3476,-1.273664248,0.4902299,-0.395596068
362668.3998,0.060852051,-0.260269165,-1.038635254,362668.3827,-0.865144392,0.259083496,-0.134162599
362668.4299,0.141845703,-0.27255249,-1.053756714,362668.4178,0.489229616,-0.188582432,0.31461653
362668.4599,0.074996948,0.026321411,-1.156494141,362668.4529,3.084402334,-0.330830654,0.404808475
362668.49,0.230224609,-0.19720459,-1.65397644,362668.4881,7.519950926,-1.192177111,0.087549024
362668.5202,-0.594558716,-1.586227417,-0.743515015,362668.4881,7.519950926,-1.192177111,0.087549024
362668.5502,-0.625991821,-3.636276245,-2.303070068,362668.5231,7.697857543,-0.044615938,0.919446246
362668.5803,1.547027588,-2.904464722,-1.81590271,362668.5583,4.890682289,1.094754418,0.820407813
362668.6104,-0.051422119,-2.39755249,-2.761749268,362668.5933,5.280533919,-1.031002869,-1.994805128
362668.6405,-0.273452759,-1.210754395,-3.082336426,362668.6285,2.917196831,0.379168625,-1.681401135
362668.6706,-0.542739868,0.224502563,-2.269073486,362668.6636,-1.767831365,1.367431221,-1.105475772
362668.7007,-0.640350342,1.265655518,-0.654388428,362668.6988,-4.364071478,1.478157469,-0.834699933
362668.7309,-0.875152588,1.67024231,0.778610229,362668.6988,-4.364071478,1.478157469,-0.834699933
362668.761,-1.305618286,0.471984863,1.238449097,362668.7338,-4.653907561,-0.120511235,-0.679663744
362668.791,-0.513748169,-0.383285522,1.452804565,362668.769,-4.156087652,-1.589204363,1.501525643
362668.8211,0.329040527,-1.054290771,2.276885986,362668.804,-2.739764788,-2.489711539,2.505591968
362668.8512,0.462585449,-1.948989868,1.09022522,362668.8392,-0.049560363,-2.229863715,1.831130976
362668.8813,1.022247314,-3.107803345,0.828887939,362668.8743,-1.127626081,2.363246541,-1.010408644
362668.9114,-0.510650635,0.088394165,-0.81187439,362668.9094,-5.151639585,0.879367004,-0.539248842
362668.9415,-0.551559448,-0.126907349,-1.229995728,362668.9094,-5.151639585,0.879367004,-0.539248842
362668.9716,0.488525391,-0.296447754,-1.071594238,362668.9445,-2.606086352,1.540981439,-1.599617855
362669.0017,0.24067688,-0.555480957,-0.886581421,362668.9796,-1.103050431,0.592265189,-0.481866509
362669.0318,0.052993774,-0.311050415,-1.010848999,362669.0147,-0.964086153,0.370946915,-0.206246913
362669.0619,0.143966675,-0.22744751,-1.060668945,362669.0499,0.439715593,-0.118007597,0.221634391
362669.092,0.132598877,0.054244995,-1.143936157,362669.0849,3.026440231,-0.579953927,0.589831592
362669.1221,0.230148315,-0.243789673,-1.711044312,362669.1201,7.397699049,-1.134165473,0.356954932
362669.1522,-0.620178223,-2.017913818,-0.536773682,362669.1201,7.397699049,-1.134165473,0.356954932
362669.1823,-1.323059082,-3.336196899,-1.449996948,362669.1552,7.401960639,-1.315203436,2.168216596
362669.2124,2.083602905,-2.829116821,-2.29876709,362669.1903,5.695693036,1.140338415,2.239375994
362669.2425,0.335281372,-2.247833252,-3.154830933,362669.2254,4.937596535,-1.319253305,-3.161387397
362669.2726,-0.405288696,-1.155944824,-3.073532104,362669.2605,1.690195958,0.305592941,-3.960259025
362669.3026,-1.014678955,0.417144775,-2.090316772,362669.2956,-1.500618304,1.405838797,-2.766210777
362669.3328,-1.443267822,1.382095337,-1.105712891,362669.3307,-3.776874818,1.185217473,-0.459703149
362669.3629,-1.35925293,1.582641602,0.03616333,362669.3307,-3.776874818,1.185217473,-0.459703149
362669.3929,-0.711730957,0.50352478,1.079208374,362669.3658,-5.576681693,-0.095799231,0.755895665
362669.423,-0.287414551,-0.669052124,2.402633667,362669.401,-4.874879091,-3.011363277,2.129674796
362669.4531,0.424133301,-1.839004517,2.214187622,362669.4361,-1.723214895,-2.95536419,2.956026252
362669.4832,0.717193604,-1.59475708,2.136993408,362669.4712,0.142671399,0.284142777,1.917463202
362669.5133,3.149719238,-2.990921021,-0.793029785,362669.5063,-5.652340502,0.666062448,0.366487185
362669.5434,0.053848267,-0.610458374,-1.387832642,362669.5414,-4.438423207,1.704163439,-1.162869556
362669.5735,0.194351196,-0.218688965,-1.145675659,362669.5414,-4.438423207,1.704163439,-1.162869556
362669.6036,0.197021484,-0.351348877,-0.931121826,362669.5765,-1.32700843,0.939925689,-0.95612623
362669.6337,0.040008545,-0.337356567,-0.94367981,362669.6116,-0.808575654,0.282073767,-0.008869125
362669.6638,0.287658691,-0.255752563,-1.032470703,362669.6467,-0.002828277,0.150437176,-0.066678629
362669.6939,0.225875854,-0.054870605,-1.165618896,362669.6819,1.969994054,-0.49399268,0.476531398
362669.724,0.399551392,0.103256226,-1.62387085,362669.717,6.269077478,-0.937986375,0.760861129
362669.7541,-0.348754883,-1.155807495,-0.977172852,362669.7521,7.952992104,-1.135528479,0.072118136
362669.7842,-0.836807251,-5.327056885,-2.857528687,362669.7521,7.952992104,-1.135528479,0.072118136
362669.8143,1.175537109,-3.191452026,-1.486495972,362669.7872,4.574009532,0.61379871,0.567394726
362669.8444,0.131500244,-2.60774231,-3.366256714,362669.8223,6.168219839,-0.209987056,-2.166025614
362669.8745,-0.005157471,-1.063583374,-3.781234741,362669.8574,3.063156701,0.687546168,-2.862252089
362669.9046,-1.071746826,0.540817261,-2.297027588,362669.8925,-2.565568487,0.706920399,-2.400537987
362669.9347,-1.398574829,2.219833374,-0.318115234,362669.9276,-4.162723717,1.267305152,-0.483822867
362669.9648,-1.164199829,2.058181763,0.882827759,362669.9628,-5.608428704,-1.435087763,0.701453994
362669.9949,-0.446655273,0.295623779,1.579162598,362669.9628,-5.608428704,-1.435087763,0.701453994
362670.025,-0.023880005,-1.087692261,2.451721191,362669.9979,-4.74551977,-2.851500109,1.273058379
362670.055,0.867233276,-1.301620483,3.003265381,362670.033,-2.244923359,-2.697034102,1.607044879
362670.0851,0.664276123,-4.176345825,-0.126739502,362670.0681,1.768401814,-1.578675289,1.195379296
362670.1153,-0.953323364,0.629653931,-1.546600342,362670.1032,-6.473232744,0.459214992,0.618029408
362670.1453,-0.451797485,0.380508423,-1.243026733,362670.1383,-3.108652014,1.674354944,-1.730278663
362670.1754,0.702789307,-0.467056274,-1.105072021,362670.1734,-0.818743071,0.484836466,-0.337486959
362670.2055,0.039031982,-0.495101929,-0.901565552,362670.1734,-0.818743071,0.484836466,-0.337486959
362670.2356,0.179901123,-0.320602417,-1.04359436,362670.2085,-0.463255806,0.202054831,0.004171842
362670.2657,0.132202148,-0.243255615,-1.08493042,362670.2436,0.83480353,-0.162975339,0.282178962
362670.2958,0.276824951,0.076171875,-1.509735107,362670.2787,3.501461351,-0.274759395,0.502107066
362670.3259,-0.19833374,-0.781738281,-1.299972534,362670.3139,7.299396446,-0.710312467,0.281558445
362670.356,-1.555130005,-5.422485352,-1.85848999,362670.349,5.027529354,-0.36678253,3.07657344
362670.3861,2.524414063,-2.058166504,-0.783828735,362670.3841,6.335080197,-1.505388824,-1.251083572
362670.4162,0.101226807,-3.001831055,-2.984786987,362670.3841,6.335080197,-1.505388824,-1.251083572
362670.4463,-0.425201416,-1.929260254,-3.465942383,362670.4192,4.942399812,0.004090615,-4.029672721
362670.4764,-0.815322876,-0.204559326,-2.749954224,362670.4543,1.42828312,0.70204495,-2.840299119
362670.5065,-1.222564697,0.935241699,-1.237533569,362670.4894,-2.720997492,0.981466208,-1.331996797
362670.5366,-1.41242981,1.736862183,0.098617554,362670.5245,-3.628896805,0.479833984,-0.037396641
362670.5667,-1.051071167,1.091522217,0.677566528,362670.5596,-5.152385803,-2.51662438,0.692420818
362670.5968,-0.6509552,0.187759399,1.854431152,362670.5947,-3.512675389,-3.990938108,2.033723499
362670.6268,0.233810425,-0.99621582,1.490570068,362670.5947,-3.512675389,-3.990938108,2.033723499
362670.6569,0.587005615,-1.348632813,1.255508423,362670.6298,-2.223762413,-4.12350574,2.458255079
362670.687,0.92980957,-0.645690918,1.214889526,362670.665,-0.808230509,-3.231848248,2.070288701
362670.7171,0.761276245,-2.681274414,-0.485427856,362670.7001,-5.465896322,4.209011853,-3.463764572
362670.7473,0.027038574,-0.37147522,-1.1277771,362670.7352,-4.541616971,2.768822805,-2.105519393
362670.7774,0.207046509,-0.081100464,-1.152328491,362670.7703,-1.425900656,1.146651438,-1.049226081
362670.8074,0.199890137,-0.435058594,-0.904876709,362670.8054,-0.505804598,0.276134918,-0.150501891
362670.8375,0.141357422,-0.353805542,-0.971679688,362670.8054,-0.505804598,0.276134918,-0.150501891
362670.8676,0.136962891,-0.357498169,-0.984848022,362670.8405,-0.084595845,0.032724657,0.009844375
362670.8977,0.157653809,-0.289535522,-1.046203613,362670.8756,0.816291897,-0.218613834,0.328678021
362670.9278,0.081253052,-0.124664307,-1.142532349,362670.9107,2.757640458,-0.268169136,0.470732365
362670.9579,-0.090438843,-0.584594727,-1.416793823,362670.9459,6.262946348,-0.714645164,0.811529899
362670.988,-0.282241821,-2.249786377,0.53616333,362670.981,7.046005191,0.321628367,-0.360304923
362671.0181,-0.68006897,-4.139282227,-1.61618042,362671.0161,4.652581307,1.542411024,0.356949606
362671.0482,0.692596436,-2.132156372,-0.866027832,362671.0161,4.652581307,1.542411024,0.356949606
362671.0783,0.379013062,-1.927978516,-2.095092773,362671.0512,6.581878531,0.423230359,-0.955040726
362671.1084,0.091445923,-1.397994995,-3.168807983,362671.0863,6.558824078,-0.301961455,-2.074782519
362671.1385,-0.790527344,-0.379608154,-2.965988159,362671.1214,2.734910378,-0.807885363,-2.49535744
362671.1686,-1.033737183,0.703887939,-2.123703003,362671.1565,-0.711768683,-0.028267324,-0.972699348
362671.1987,-0.700668335,0.855545044,-1.678649902,362671.1916,-2.99198159,-1.452489923,0.071166855
362671.2288,-0.589660645,0.504470825,-1.35609436,362671.2268,-5.077842326,-2.832037461,1.013932006
362671.2589,-0.426528931,-0.18460083,-0.940963745,362671.2268,-5.077842326,-2.832037461,1.013932006
362671.2889,0.458969116,-0.389129639,-0.60395813,362671.2618,-6.679824802,-3.007421799,1.806808059
362671.319,1.557571411,-1.210586548,-1.086547852,362671.297,-6.101196064,-4.891907343,0.545152804
362671.3492,0.473068237,-1.768829346,-0.445251465,362671.3321,-6.506782182,-6.982329009,-1.204831121
362671.3792,0.674972534,-2.176528931,-0.290496826,362671.3672,-5.108279062,-4.54722985,0.519542249
362671.4093,2.691253662,-2.727767944,-0.00769043,362671.4023,-2.278397696,-4.401424976,-1.399953478
362671.4394,1.989593506,-2.246444702,2.628417969,362671.4374,2.483155369,-2.450683179,-3.118646591
362671.4695,2.296646118,-1.531860352,0.163360596,362671.4374,2.483155369,-2.450683179,-3.118646591
362671.4996,-0.579391479,-0.435134888,-0.902709961,362671.4725,-3.558947281,3.952426136,-2.792275401
362671.5297,-0.285400391,0.238739014,-1.115341187,362671.5076,-2.051729664,1.02517534,-0.272366278
362671.5598,0.402664185,-0.507843018,-0.925323486,362671.5427,0.104373012,0.593721405,-0.527518949
362671.5899,0.08013916,-0.369598389,-0.931335449,362671.5779,0.099306081,0.048165133,0.005468801
362671.62,0.166824341,-0.407608032,-0.947235107,362671.613,0.537259194,-0.07335118,0.067306337
362671.6501,0.120269775,-0.366836548,-0.960662842,362671.6481,1.103664023,-0.208334298,0.350957227
362671.6802,0.130996704,-0.321105957,-0.970825195,362671.6481,1.103664023,-0.208334298,0.350957227
362671.7103,0.179473877,-0.362167358,-0.982727051,362671.6832,2.172153547,-0.640986389,0.608195952
362671.7404,0.047912598,-0.435958862,-1.041473389,362671.7183,3.342521766,-1.495213685,1.136857663
362671.7705,-0.321136475,-0.790359497,-1.060241699,362671.7534,4.773895218,-2.299058233,1.522544375
362671.8006,0.495147705,-0.765777588,-1.62612915,362671.7885,4.907711074,-4.668706747,0.822370562
362671.8307,0.334869385,-0.491210938,-1.039306641,362671.8236,5.569353739,-8.273890765,-0.828095294
362671.8608,0.365783691,-1.494766235,-2.738708496,362671.8588,1.025362293,-3.896667798,-7.798497336
362671.8909,-0.748916626,-0.901031494,-1.06829834,362671.8588,1.025362293,-3.896667798,-7.798497336
362671.921,-1.53503418,-0.667755127,-1.953781128,362671.8938,2.468822236,-2.804714227,-5.26714248
362671.9511,-0.191741943,0.034835815,-1.799102783,362671.929,0.365689835,-1.492827759,0.000474842
362671.9812,1.3409729,0.07661438,-1.895904541,362671.9641,-2.262415533,-2.278514875,1.581492647
362672.0112,1.82901001,-0.080322266,-1.372543335,362671.9992,-5.099354809,-3.641490627,-0.975182213
362672.0413,1.301147461,-0.57762146,-1.187057495,362672.0343,-6.201806028,-4.968286803,-2.277646951
362672.0714,0.780136108,-1.231536865,-0.725112915,362672.0694,-6.376932306,-5.153801007,-1.202183939
362672.1015,0.607894897,-1.814437866,0.224105835,362672.0694,-6.376932306,-5.153801007,-1.202183939
362672.1316,0.457733154,-2.43788147,1.621398926,362672.1045,-4.315853349,-5.207353981,1.433511438
362672.1617,1.324890137,-3.412384033,1.502929688,362672.1397,-0.273901857,-1.104649659,1.746915697
362672.1918,1.562454224,-2.896133423,2.02684021,362672.1747,1.762503978,-2.633445539,-0.469447656
362672.2219,0.931427002,-0.272460938,0.802444458,362672.2099,-1.78811187,5.535588052,-2.621556655
362672.252,-0.262115479,-0.531326294,-1.224990845,362672.245,-2.745231193,2.391455009,-2.076778025
362672.2821,0.287872314,-0.475982666,-0.97026062,362672.2801,-2.155380426,1.660223678,-1.331349915
362672.3122,0.230392456,-0.357849121,-0.968292236,362672.2801,-2.155380426,1.660223678,-1.331349915
362672.3423,0.281677246,-0.192001343,-1.044952393,362672.3152,-1.567905732,1.063180246,-0.818802726
362672.3724,0.325256348,-0.273803711,-1.018417358,362672.3503,0.030157104,0.211746074,-0.177977724
362672.4025,0.170028687,-0.257965088,-1.049301147,362672.3854,1.399402736,-0.551395786,0.570371341
362672.4326,0.207183838,-0.032669067,-1.165222168,362672.4205,3.510128342,-0.918900831,0.950800174
362672.4627,-0.224807739,-0.207077026,-1.667266846,362672.4556,7.748143351,-1.825031538,1.206453785
362672.4928,0.349227905,-1.758422852,-1.983184814,362672.4908,6.873580957,-4.872005008,0.166451563
362672.5229,-0.741500854,-2.921356201,-2.749313354,362672.4908,6.873580957,-4.872005008,0.166451563
362672.553,-0.464019775,-2.351196289,-1.185516357,362672.5258,2.487199645,-3.326021353,-3.543030632
362672.5831,-0.149536133,-2.263061523,-2.162567139,362672.561,4.014699364,-1.871472807,-2.211132905
362672.6131,0.230941772,-1.457611084,-2.691116333,362672.5961,3.222612406,0.257241388,-1.385592914
362672.6432,0.015182495,-0.341186523,-2.208114624,362672.6312,-0.599805663,0.764175433,-1.188523521
362672.6733,-0.279129028,0.683105469,-0.773452759,362672.6663,-3.818744504,1.062524576,-0.657568029
362672.7035,-0.563110352,1.116409302,0.158477783,362672.7015,-5.325321364,0.972396547,-0.500352841
362672.7336,-0.774734497,0.556747437,0.766723633,362672.7015,-5.325321364,0.972396547,-0.500352841
362672.7637,-1.275115967,-0.244934082,2.243530273,362672.7365,-6.280283527,-1.250331495,-0.939068151
362672.7938,-0.35723877,-1.219009399,2.277420044,362672.7717,-3.270189778,-3.237955942,1.458103067
362672.8238,0.142425537,-1.57862854,1.727584839,362672.8068,-1.306515405,-3.099021757,2.057899942
362672.8539,0.90032959,-0.908798218,1.924224854,362672.8419,0.815798147,-0.665073882,1.524515913
362672.884,3.868362427,-2.382720947,-0.595626831,362672.877,-6.006552645,0.931849653,0.242074419
362672.9141,0.626693726,-0.283554077,-1.245300293,362672.9121,-3.32613214,2.05128465,-1.86034825
362672.9442,0.683151245,-0.196990967,-1.126113892,362672.9121,-3.32613214,2.05128465,-1.86034825
362672.9743,0.158096313,-0.450546265,-0.893783569,362672.9472,-0.586525544,0.339561295,-0.101114101
362673.0044,0.207351685,-0.339050293,-0.979217529,362672.9824,-0.209479458,0.162481589,-0.033705499
362673.0345,0.196365356,-0.217193604,-1.114578247,362673.0174,0.869020889,-0.27795865,0.300305235
362673.0646,0.366012573,0.141479492,-1.422088623,362673.0526,4.260673184,-0.990253042,0.721098003
362673.0947,-0.306289673,-1.021835327,-1.35446167,362673.0876,6.931900989,-2.250950625,0.50304077
362673.1248,-0.796875,-4.18258667,-0.640640259,362673.1228,4.576468695,-0.409539315,0.817830672
362673.1549,0.925415039,-2.497817993,-0.957901001,362673.1228,4.576468695,-0.409539315,0.817830672
362673.185,0.249343872,-3.172164917,-2.369232178,362673.1579,5.956092666,-0.963223288,-1.518718212
362673.2151,-0.108688354,-2.402999878,-3.69744873,362673.193,5.713654992,0.908111833,-2.683033598
362673.2452,-0.15536499,-0.510345459,-3.466217041,362673.2281,1.15420869,1.318997109,-2.423845706
362673.2753,-1.123596191,0.900787354,-1.863342285,362673.2632,-3.185955058,0.203082811,-2.046559669
362673.3054,-1.79284668,1.732727051,0.215545654,362673.2983,-4.680892839,1.415162258,-0.308918697
362673.3355,-1.142791748,1.23059082,0.749908447,362673.3335,-5.066906322,-1.825975362,0.822168695
362673.3656,-1.062988281,0.038787842,1.27432251,362673.3335,-5.066906322,-1.825975362,0.822168695
362673.3957,0.140441895,-0.891708374,2.139511108,362673.3685,-4.618755432,-2.367900415,2.431525464
362673.4257,0.085952759,-1.299530029,1.738067627,362673.4037,-1.531876358,-3.052707788,2.263325003
362673.4558,0.030426025,-0.944122314,1.65586853,362673.4387,0.304801983,-1.937942378,2.678311814
362673.4859,1.960876465,-1.357254028,-0.5652771,362673.4739,-5.915891184,3.116981849,-0.210491459
362673.516,0.134307861,-0.414535522,-1.123016357,362673.509,-4.268729779,2.123872567,-1.554944659
362673.5461,0.346511841,-0.145141602,-1.099060059,362673.5441,-1.315527543,0.929659735,-0.80478784
362673.5762,0.149124146,-0.358947754,-0.912017822,362673.5441,-1.315527543,0.929659735,-0.80478784
362673.6063,0.160507202,-0.371795654,-0.962524414,362673.5792,-0.639396748,0.363162761,-0.169776253
362673.6364,0.206726074,-0.34147644,-1.016647339,362673.6143,0.044669201,0.03090412,0.020808609
362673.6665,0.242797852,-0.188705444,-1.137969971,362673.6494,1.381968085,-0.419428963,0.347973688
362673.6966,0.347137451,-0.097961426,-1.285385132,362673.6846,4.15308041,-0.93763324,0.788272513
362673.7267,-0.320907593,-0.810958862,-1.205154419,362673.7197,6.735565829,-0.946084249,0.722160338
362673.7568,0.310836792,-2.883026123,0.404006958,362673.7548,5.234046312,-1.269149125,0.830796538
362673.7869,0.264144897,-1.982894897,-0.488616943,362673.7548,5.234046312,-1.269149125,0.830796538
362673.817,0.633361816,-2.692337036,-1.447128296,362673.7899,4.383243042,0.131722611,-0.725957473
362673.8471,-0.174118042,-2.270462036,-2.017593384,362673.825,5.046582674,-0.107707289,-2.166006971
362673.8772,-0.001312256,-1.702453613,-2.913757324,362673.8601,4.398322393,1.453307513,-1.666565996
362673.9073,-0.282196045,-0.705322266,-2.389556885,362673.8952,-0.297573098,0.240758018,-1.779072302
362673.9374,-0.706985474,0.491897583,-1.130569458,362673.9303,-2.551409524,0.591786885,-1.461301524
362673.9675,-0.78414917,0.98274231,-0.289871216,362673.9655,-3.441890165,0.386654505,-0.487285243
362673.9976,-0.717376709,0.564575195,-0.096374512,362673.9655,-3.441890165,0.386654505,-0.487285243
362674.0277,-0.84262085,0.226898193,1.068984985,362674.0006,-5.184484351,-0.777708818,0.410808311
362674.0578,-0.167907715,0.011016846,1.677719116,362674.0357,-4.422917218,-1.604519936,0.979911721
362674.0878,-0.292724609,-1.14276123,0.883041382,362674.0708,-2.094884059,-2.935339882,2.554819969
362674.1179,0.631103516,-0.516204834,2.284118652,362674.1059,-1.100549723,-2.281572716,2.914664164
362674.1481,2.154174805,-4.46534729,-0.475952148,362674.141,-5.421044961,3.120865271,0.16121712
362674.1781,0.340835571,-0.480728149,-1.257720947,362674.1761,-4.42842357,1.41236514,-0.919731471
362674.2082,-0.102798462,-0.080551147,-1.10710144,362674.1761,-4.42842357,1.41236514,-0.919731471
362674.2383,0.166213989,-0.401901245,-0.958618164,362674.2112,-1.679480464,1.059020655,-1.131023476
362674.2684,0.157165527,-0.472488403,-0.980911255,362674.2464,-0.743776151,0.277269957,-0.080617881
362674.2985,0.200164795,-0.37727356,-1.024810791,362674.2814,0.072218537,0.040441433,0.046695068
362674.3286,0.178939819,-0.18409729,-1.071731567,362674.3166,1.476362232,-0.456352893,0.556570308
362674.3587,0.327819824,0.020904541,-1.346252441,362674.3517,4.723147619,-1.01914541,1.249998333
362674.3888,-0.280471802,-0.637115479,-1.381866455,362674.3868,7.312093333,-0.647030167,0.641894527
362674.4189,-1.090332031,-4.292053223,-0.596496582,362674.3868,7.312093333,-0.647030167,0.641894527
