accelerometerTimestamp_sinceReboot,accelerometerAccelerationX,accelerometerAccelerationY,accelerometerAccelerationZ,gyroTimestamp_sinceReboot,gyroRotationX,gyroRotationY,gyroRotationZ
361978.8479,-0.168685913,-0.399719238,-0.893585205,361978.8378,0.011766911,0.039462721,-0.007210775
361978.8779,-0.171707153,-0.399169922,-0.892913818,361978.8729,0.00859189,0.050126551,-0.012538162
361978.908,-0.165374756,-0.395935059,-0.893600464,361978.908,0.012882243,0.046949133,-0.013566942
361978.9381,-0.166244507,-0.400268555,-0.893066406,361978.908,0.012882243,0.046949133,-0.013566942
361978.9682,-0.166183472,-0.398956299,-0.893371582,361978.9431,0.0075213,0.044794902,-0.011500595
361978.9983,-0.168457031,-0.399002075,-0.892623901,361978.9783,0.009641708,0.043725909,-0.009350891
361979.0284,-0.163848877,-0.401077271,-0.894042969,361979.0134,0.008593488,0.049061819,-0.012541358
361979.0585,-0.16519165,-0.398117065,-0.89289856,361979.0485,0.009641708,0.043725909,-0.009350891
361979.0886,-0.177368164,-0.399749756,-0.888717651,361979.0835,0.005455219,0.06081062,-0.022125542
361979.1187,-0.163314819,-0.404632568,-0.893386841,361979.1187,-0.004282363,0.055394816,-0.00839961
361979.1488,-0.161529541,-0.400375366,-0.8956604,361979.1187,-0.004282363,0.055394816,-0.00839961
361979.1789,-0.175231934,-0.395187378,-0.896820068,361979.1538,-0.024658741,0.047845553,-0.000119576
361979.209,-0.149612427,-0.407867432,-0.905136108,361979.1889,-0.021365476,0.015932628,-0.004441087
361979.2391,-0.162979126,-0.395172119,-0.892929077,361979.224,-0.025837989,-0.032133702,0.025189243
361979.2692,-0.171478271,-0.393554688,-0.890075684,361979.2592,-0.004368649,0.01059512,0.008506137
361979.2993,-0.174728394,-0.39100647,-0.891098022,361979.2942,0.006257363,0.008459531,0.016069248
361979.3293,-0.16557312,-0.396972656,-0.8959198,361979.3293,0.013662016,-0.009676063,0.02781006
361979.3595,-0.167755127,-0.396453857,-0.898956299,361979.3293,0.013662016,-0.009676063,0.02781006
361979.3896,-0.186447144,-0.39352417,-0.894668579,361979.3644,0.007243266,-0.032073248,0.031934231
361979.4196,-0.182983398,-0.379547119,-0.885986328,361979.3996,0.013874537,-0.029809827,0.007514375
361979.4497,-0.208206177,-0.342147827,-0.869674683,361979.4347,0.109225824,-0.029437784,-0.014896392
361979.4798,-0.222015381,-0.299545288,-0.903533936,361979.4698,0.287279448,0.022008896,-0.206686334
361979.5099,-0.157058716,0.038284302,-1.191116333,361979.5049,2.023157674,-0.589109875,-0.54356769
361979.54,-0.520950317,-0.297805786,-1.529052734,361979.5049,2.023157674,-0.589109875,-0.54356769
361979.5701,-0.303787231,-0.628250122,-1.291397095,361979.54,5.557649146,-0.403669974,-1.646978447
361979.6002,-1.830810547,-2.895599365,-3.472305298,361979.5751,6.370120473,0.131029922,-2.560123654
361979.6303,-1.067153931,0.027954102,-0.98664856,361979.6102,-0.168790617,0.921203933,0.309856662
361979.6604,-0.70501709,-0.514801025,-1.460342407,361979.6453,-0.800129173,1.172634569,0.806592132
361979.6905,-0.450332642,-0.204101563,-0.787704468,361979.6805,-2.146994664,0.666473906,1.223084694
361979.7206,-0.044616699,-0.0599823,-0.368942261,361979.7155,-1.635792371,0.621106957,1.21137797
361979.7507,-0.05607605,-0.261352539,-0.502975464,361979.7507,-1.585751042,0.231137882,1.298076381
361979.7808,0.11416626,-0.34866333,-0.355026245,361979.7507,-1.585751042,0.231137882,1.298076381
361979.8109,0.172988892,-0.362976074,-0.310165405,361979.7857,-1.305818723,0.210013688,1.20195331
361979.8409,0.234771729,-0.264785767,-0.035110474,361979.8209,-0.896683676,0.253044778,1.350253299
361979.871,1.103546143,-0.397460938,0.437057495,361979.856,-0.142572329,0.051557467,0.27129915
361979.9011,0.470153809,-0.881027222,0.85647583,361979.8911,0.572464053,-0.612074846,-1.497532765
361979.9312,-0.678237915,-1.355514526,0.759338379,361979.9262,2.371444816,-0.594379738,0.551888471
361979.9613,0.712203979,-6.60244751,-2.500305176,361979.9613,-2.195998959,0.028824191,0.714705884
361979.9914,-0.235122681,0.502914429,-0.905929565,361979.9613,-2.195998959,0.028824191,0.714705884
361980.0215,-0.567123413,-0.501205444,-0.982650757,361979.9964,-1.95542603,-0.431884568,0.787253588
361980.0516,-0.207717896,-0.477050781,-0.880065918,361980.0315,-1.254604537,0.065973691,0.168904334
361980.0817,-0.396224976,-0.393127441,-0.85975647,361980.0666,-1.001993055,0.266662586,-0.016311595
361980.1118,-0.181121826,-0.360626221,-0.928955078,361980.1017,-0.730681388,0.503404824,-0.384418515
361980.1419,-0.142379761,-0.295455933,-0.977416992,361980.1369,0.220659941,0.057876349,-0.175337732
361980.172,-0.154937744,-0.37940979,-0.958389282,361980.172,0.995003855,-0.260590313,0.07909695
361980.2021,-0.240966797,-0.262145996,-0.99458313,361980.172,0.995003855,-0.260590313,0.07909695
361980.2322,-0.446380615,-0.215606689,-1.279495239,361980.2071,2.550054508,-0.039069905,-0.140044723
361980.2623,-0.530303955,-0.276077271,-1.396759033,361980.2422,5.911658356,0.042687276,-1.260530603
361980.2924,-0.335006714,-1.867111206,-0.485153198,361980.2773,7.99532518,-0.948591349,-2.283966366
361980.3225,-2.002075195,-5.862594604,-2.375183105,361980.3124,5.485206903,4.388812511,1.4566093
361980.3526,1.250274658,-2.609664917,-1.874420166,361980.3475,2.98888966,-1.133438164,-0.372975178
361980.3826,-0.460662842,-1.84664917,-2.571014404,361980.3826,2.126142113,0.509311183,-4.678191861
361980.4127,-1.035934448,-0.499191284,-2.46875,361980.3826,2.126142113,0.509311183,-4.678191861
361980.4428,-1.380126953,0.880218506,-1.188613892,361980.4177,-1.111102232,1.232591114,-3.7275592
361980.4729,-1.034805298,1.602005005,0.145126343,361980.4529,-3.12031666,2.453194008,-1.393606898
361980.503,-0.618453979,1.483657837,0.785339355,361980.4879,-4.383882201,-0.280117941,0.583842409
361980.5331,-0.733734131,0.595184326,1.295318604,361980.5231,-4.406045028,-2.385775818,1.608283515
361980.5632,-0.305923462,-0.334289551,1.167831421,361980.5582,-2.693400219,-3.067202042,3.743075575
361980.5933,0.531784058,-1.381576538,1.234710693,361980.5933,-0.642536615,-2.511520964,3.852979706
361980.6234,0.979751587,-1.732818604,1.32661438,361980.5933,-0.642536615,-2.511520964,3.852979706
361980.6535,2.490371704,-7.299713135,-0.621688843,361980.6284,0.742850969,-0.293693139,2.203334636
361980.6836,1.113540649,-0.368728638,-1.06161499,361980.6635,-4.308084375,3.613477635,0.670961066
361980.7137,-1.040084839,-0.392089844,-1.434829712,361980.6986,-4.500501492,0.822095991,1.599910536
361980.7438,0.33605957,-0.094558716,-1.235427856,361980.7337,-1.582187732,0.486348875,-0.207189405
361980.7739,-0.253738403,-0.202362061,-1.008773804,361980.7688,0.540763381,-0.028431375,0.027004986
361980.8039,-0.262176514,-0.162902832,-1.052947998,361980.8039,2.777623754,0.017458619,-0.251405603
361980.834,-0.340652466,-0.350341797,-1.645004272,361980.8039,2.777623754,0.017458619,-0.251405603
361980.8642,-0.51651001,-0.679382324,-1.33241272,361980.839,6.92442443,-0.602742597,-1.072697851
361980.8942,-0.793441772,-5.157989502,0.070175171,361980.8742,9.835083733,-1.792581719,-0.822522629
361980.9243,0.129272461,-2.849853516,-2.09954834,361980.9093,2.233782823,2.707308844,-1.084161162
361980.9544,-0.473251343,-1.835144043,-2.624069214,361980.9444,2.253136548,-1.022808056,-4.164874219
361980.9845,-1.500640869,-0.670730591,-2.283432007,361980.9795,-1.335515632,0.484266549,-4.802661087
361981.0146,-1.434555054,0.967163086,-0.625915527,361981.0146,-2.612182328,1.839777461,-2.870529993
361981.0447,-1.238143921,1.483535767,0.348083496,361981.0146,-2.612182328,1.839777461,-2.870529993
361981.0748,-1.413818359,1.362609863,1.209686279,361981.0497,-3.570025498,-0.856195638,0.173290294
361981.1049,-0.904373169,0.51940918,1.283737183,361981.0848,-3.048758054,-3.274964027,3.111291473
361981.135,-0.09362793,-0.634719849,1.248519897,361981.1199,-1.26911983,-3.606940373,5.466204184
361981.1651,0.875732422,-1.838638306,0.672332764,361981.1551,-0.603653398,-1.297685429,4.322514447
361981.1952,1.332595825,-1.710845947,1.229370117,361981.1901,-0.102529039,-1.142812757,1.361997839
361981.2253,1.464248657,-2.881515503,0.160339355,361981.2253,-3.379383644,3.435481801,-2.346694728
361981.2554,0.620361328,-0.894485474,-1.113464355,361981.2253,-3.379383644,3.435481801,-2.346694728
361981.2855,-1.289215088,-0.609344482,-1.368988037,361981.2604,-5.551765691,0.490556936,2.641056853
361981.3156,0.374710083,-0.231674194,-1.377151489,361981.2955,-3.567357011,2.142342122,-1.444065013
361981.3457,-0.36907959,-0.179153442,-0.98789978,361981.3306,-0.863476188,0.200177835,0.164975106
361981.3757,-0.1015625,-0.311828613,-1.020614624,361981.3657,0.801671143,-0.29143611,0.183445993
361981.4058,-0.287582397,-0.093078613,-1.092727661,361981.4008,2.974149063,-0.43815791,-0.155881477
361981.4359,-0.632385254,-0.392990112,-1.584686279,361981.4359,6.5572118,-0.341230032,-1.652067215
361981.466,-0.700241089,-1.090927124,-0.904495239,361981.4359,6.5572118,-0.341230032,-1.652067215
361981.4961,-2.025665283,-4.903396606,-0.02911377,361981.471,8.468392072,-2.173138118,-1.31121189
361981.5262,0.452697754,-3.476333618,-2.169540405,361981.5061,3.669906822,3.87386102,-0.598747589
361981.5563,-0.139450073,-2.071716309,-2.01348877,361981.5412,2.887547858,-0.609333122,-2.738101112
361981.5864,-0.968276978,-1.328033447,-2.823379517,361981.5764,1.344419112,-0.250492937,-5.005191824
361981.6165,-1.566879272,0.41192627,-1.654403687,361981.6115,-1.996455223,1.617915103,-3.77528278
361981.6466,-1.336715698,1.411026001,-0.276138306,361981.6466,-3.684527577,1.136842217,-1.208702292
361981.6767,-1.148010254,1.635452271,0.778320313,361981.6466,-3.684527577,1.136842217,-1.208702292
361981.7068,-1.168777466,0.870452881,1.299972534,361981.6817,-3.908217129,-2.256207705,1.747142865
361981.7369,-0.226913452,0.044570923,1.356933594,361981.7168,-2.7857171,-3.421541218,4.317245916
361981.767,0.58366394,-1.051940918,1.401153564,361981.7519,-1.226572636,-2.419713812,4.584065096
361981.7971,0.903579712,-2.205932617,0.955383301,361981.787,-0.108199974,-1.479558558,2.995874066
361981.8272,1.613998413,-1.621643066,0.752960205,361981.8221,0.574400704,-0.433109888,0.512901923
361981.8573,0.227096558,-0.245285034,0.24710083,361981.8573,-5.554314336,0.881123891,1.554724682
361981.8873,-1.055862427,-1.137252808,-1.471160889,361981.8573,-5.554314336,0.881123891,1.554724682
361981.9174,-0.078887939,-0.139251709,-1.317138672,361981.8923,-4.274427878,1.697661065,-0.140752591
361981.9475,-0.216537476,-0.130859375,-1.048294067,361981.9275,-1.149667468,0.351927683,0.103788181
361981.9776,-0.085739136,-0.213638306,-1.035690308,361981.9625,1.0133541,-0.218889471,0.05279131
361982.0077,-0.427398682,-0.004669189,-1.267974854,361981.9977,3.761309707,-0.301985157,-0.567765438
361982.0378,-0.623626709,-0.209960938,-1.472946167,361982.0328,7.680699329,-0.809595379,-1.916254393
361982.0679,0.451477051,-2.168655396,-0.570053101,361982.0679,9.424878096,-4.412624633,-0.905117374
361982.098,-1.286941528,-5.414047241,-2.789337158,361982.0679,9.424878096,-4.412624633,-0.905117374
361982.1281,0.577957153,-2.345001221,-1.890579224,361982.103,2.046082697,2.522796255,-1.579875842
361982.1582,-0.593261719,-1.478378296,-2.105010986,361982.1381,2.261304995,-0.521662391,-4.085521074
361982.1883,-1.321762085,-0.509216309,-2.082046509,361982.1732,0.984371451,0.833715895,-4.37842059
361982.2184,-1.319549561,0.542556763,-1.270751953,361982.2083,-0.966850514,1.274559869,-1.708558721
361982.2485,-0.937759399,1.14024353,-0.219482422,361982.2434,-4.069706957,0.977056013,0.156431686
361982.2785,-0.276931763,1.07762146,1.063873291,361982.2785,-4.205894091,-1.995876784,0.33239819
361982.3086,-0.463821411,0.425537109,1.598556519,361982.2785,-4.205894091,-1.995876784,0.33239819
361982.3387,-0.691970825,-0.134567261,1.452713013,361982.3136,-2.439227592,-4.05121876,1.679697245
361982.3688,-0.404403687,-1.350082397,0.849624634,361982.3488,-0.587545002,-3.920544369,4.862241859
361982.3989,1.45652771,-1.714996338,0.929779053,361982.3839,-0.504801119,0.262348265,3.893712755
361982.429,1.081619263,-1.651443481,0.343917847,361982.419,0.288086386,-2.071534261,0.520869834
361982.4591,-0.164428711,-0.457687378,0.876235962,361982.4541,-4.305479804,2.188218001,-0.09700005
361982.4892,0.753540039,-1.171676636,-0.970916748,361982.4892,-5.085494653,0.595295333,2.608019807
361982.5193,-1.751831055,0.166809082,-1.051025391,361982.4892,-5.085494653,0.595295333,2.608019807
361982.5494,0.661743164,-0.423599243,-1.300048828,361982.5243,-2.787446024,1.994051986,-1.59806177
361982.5795,-0.243743896,-0.235595703,-0.995422363,361982.5594,-0.516949928,0.166615347,0.036508743
361982.6096,-0.202911377,-0.363540649,-0.942550659,361982.5945,0.906223119,-0.298718524,0.209040835
361982.6397,-0.201461792,-0.243896484,-1.087600708,361982.6297,2.455642784,-0.583511911,0.104408698
361982.6698,-0.595825195,-0.469100952,-1.370803833,361982.6647,5.396354262,-0.628607217,-0.557639833
361982.6999,-0.624755859,-0.646881104,-1.017288208,361982.6999,7.663141641,-0.385782852,-1.935400657
361982.73,-1.200393677,-3.6353302,1.269973755,361982.6999,7.663141641,-0.385782852,-1.935400657
361982.7601,-0.201660156,-4.335266113,-2.416091919,361982.7349,6.474966461,1.705655342,-0.215255055
361982.7901,0.183792114,-2.110351563,-1.687057495,361982.7701,2.71463307,-1.04011301,-0.681317567
361982.8202,-0.605712891,-1.638519287,-2.736801147,361982.8052,1.993529474,-0.57084352,-5.327266004
361982.8503,-1.457397461,0.152145386,-1.679153442,361982.8403,-1.251991976,-0.513255591,-5.010344508
361982.8804,-1.465301514,1.346069336,-0.253387451,361982.8754,-2.946233809,1.090609207,-2.930687339
361982.9105,-1.185714722,1.682723999,0.771896362,361982.9105,-3.458310151,-2.498950577,1.332635689
361982.9406,-1.023788452,1.143005371,1.194152832,361982.9105,-3.458310151,-2.498950577,1.332635689
361982.9707,0.200149536,0.232391357,0.636810303,361982.9456,-2.631329923,-3.311402995,3.182752075
361983.0008,0.069641113,-0.574142456,0.62802124,361982.9807,-2.431076721,-4.869663024,3.638193367
361983.0309,1.270080566,-1.156066895,1.056549072,361983.0158,-1.852190721,-2.294808627,2.567871588
361983.061,1.11946106,-1.727172852,0.774642944,361983.0509,0.008750082,-1.512988687,0.22559318
361983.0911,1.261917114,-1.166107178,0.223175049,361983.086,-0.771574759,-0.636901366,-0.642859923
361983.1212,0.644683838,-0.281860352,-0.055877686,361983.1212,-5.741068507,1.262255799,1.454819922
361983.1513,-0.489395142,-1.027389526,-1.60118103,361983.1212,-5.741068507,1.262255799,1.454819922
361983.1814,-0.43888855,-0.025939941,-1.216171265,361983.1563,-4.013414655,1.189515815,0.518749692
361983.2115,-0.089950562,-0.268920898,-1.028701782,361983.1914,-1.027960473,0.417796445,-0.244068328
361983.2415,-0.063156128,-0.469177246,-0.975753784,361983.2265,0.64196297,-0.197205481,-0.023546605
361983.2717,-0.337310791,-0.224349976,-0.988220215,361983.2616,1.957314744,-0.217347234,0.058639878
361983.3018,-0.481369019,-0.314865112,-1.35887146,361983.2967,5.099006467,-0.06783817,-1.108730421
361983.3318,-0.503387451,-0.469711304,-1.356185913,361983.3318,8.31325708,-0.8568577,-2.581714167
361983.3619,0.202987671,-2.447753906,1.048904419,361983.3318,8.31325708,-0.8568577,-2.581714167
361983.392,-0.894042969,-3.988204956,-1.394515991,361983.3669,8.15483841,-3.61437725,-2.94002385
361983.4221,-0.086593628,-2.010818481,-1.09135437,361983.4021,2.470065399,-0.319315944,-2.84501105
361983.4522,-0.494064331,-1.846618652,-1.576187134,361983.4371,1.972282242,-0.960499141,-4.447818041
361983.4823,-1.311508179,-0.734741211,-1.215530396,361983.4723,2.114790655,-0.126654349,-4.619520292
361983.5124,-1.695846558,-0.335189819,-1.507766724,361983.5074,2.468828627,0.762037447,-2.528617127
361983.5425,-1.701370239,0.006912231,-1.95085144,361983.5425,0.246678492,-0.082184352,0.638266769
361983.5726,-1.342422485,0.803466797,-1.593429565,361983.5425,0.246678492,-0.082184352,0.638266769
361983.6027,-0.821395874,0.623855591,-1.192886353,361983.5776,-2.702688792,-1.249572228,2.815419336
361983.6328,-0.471984863,-0.306472778,-1.465484619,361983.6127,-4.579805103,-2.963327308,5.206902841
361983.6629,0.609909058,-0.792892456,-1.49269104,361983.6478,-6.650356392,-2.674018798,6.076049431
361983.693,1.088180542,-0.756546021,-1.248962402,361983.6829,-6.965551094,-4.128235781,4.038176195
361983.7231,0.445785522,-1.249435425,-1.602539063,361983.718,-6.527021141,-2.144090754,2.386211511
361983.7531,1.551986694,-1.723236084,-1.52432251,361983.7531,-4.958473055,-3.436803261,-0.270079955
361983.7832,1.515197754,-2.623458862,0.267715454,361983.7531,-4.958473055,-3.436803261,-0.270079955
361983.8133,1.570968628,-3.725112915,1.078445435,361983.7882,-1.387463252,-4.269634721,-2.175009521
361983.8434,-1.540420532,-5.802581787,3.333114624,361983.8234,-1.564423915,2.516339421,-3.697649504
361983.8735,1.221099854,-1.031036377,-2.644424438,361983.8585,-3.723885369,6.527362025,-3.417884698
361983.9036,0.408828735,0.321350098,-1.228881836,361983.8936,-1.281150394,1.403966861,-0.663458409
361983.9337,0.019897461,-0.358139038,-0.945663452,361983.9287,0.668898714,-0.640414076,0.500506506
361983.9638,-0.239242554,-0.483154297,-0.86857605,361983.9638,0.880554507,-0.492225939,0.360493741
361983.9939,-0.344589233,-0.387527466,-0.870391846,361983.9638,0.880554507,-0.492225939,0.360493741
361984.024,-0.206436157,-0.498947144,-0.864807129,361983.9989,1.141964008,-0.345671119,-0.080419209
361984.0541,-0.305297852,-0.595046997,-0.740951538,361984.034,1.316753129,-0.397681323,-0.01160286
361984.0842,-0.398162842,-0.617553711,-0.653793335,361984.0691,0.816942241,-0.08709096,-0.239690091
361984.1143,-0.342926025,-0.594146729,-0.697570801,361984.1042,0.226262166,0.154603692,-0.812990377
361984.1444,-0.153823853,-0.638320923,-0.704742432,361984.1394,-0.112368886,-0.40018363,-1.22729382
361984.1745,-0.072479248,-0.613525391,-0.773864746,361984.1745,-0.110735836,-0.188565654,-0.49383795
361984.2046,-0.083358765,-0.560852051,-0.824783325,361984.1745,-0.110735836,-0.188565654,-0.49383795
361984.2347,-0.237594604,-0.484909058,-0.88394165,361984.2096,0.315953703,-0.157646353,0.199952798
361984.2648,-0.203018188,-0.480834961,-0.999298096,361984.2447,1.402032874,-0.2760979,-0.003932424
361984.2949,-0.468826294,-0.35609436,-1.05090332,361984.2798,3.292934239,-0.963503187,-0.328733414
361984.325,-0.470367432,-0.221542358,-1.681732178,361984.3149,7.502719208,-1.887095176,-1.802117966
361984.355,0.469619751,-0.340087891,-1.828445435,361984.35,13.07013949,-10.60191753,-3.055480671
361984.3851,-2.429367065,-6.073455811,-4.110778809,361984.3851,2.83587987,-6.977985926,-2.013355909
361984.4152,-1.819244385,-0.93019104,-1.880905151,361984.3851,2.83587987,-6.977985926,-2.013355909
361984.4453,1.931427002,-0.635513306,-2.475830078,361984.4202,-0.528940544,-1.687257693,3.213352861
361984.4754,1.481933594,-1.136489868,-2.132843018,361984.4554,-4.569298933,-3.343788898,0.78031046
361984.5055,2.822387695,-0.753356934,-1.181442261,361984.4905,-7.581613758,-2.686230989,1.57658018
361984.5356,2.018951416,-1.733810425,-1.666763306,361984.5256,-8.620740333,-2.833909131,-1.13292737
361984.5657,1.3956604,-1.947799683,-0.780731201,361984.5607,-8.907494073,-1.469441209,-0.736721438
361984.5958,0.578353882,-1.741027832,0.061477661,361984.5958,-7.053839678,-0.783952333,-0.949136498
361984.6259,0.331970215,-1.357284546,1.815551758,361984.5958,-7.053839678,-0.783952333,-0.949136498
361984.656,-0.723937988,-2.11164856,2.922805786,361984.6309,-2.363126166,-1.910602366,-1.302809351
361984.6861,-0.395950317,-4.274261475,1.698745728,361984.666,3.0377837,-1.670509073,2.001136261
361984.7162,2.935546875,-1.877990723,2.688323975,361984.7011,1.172800218,-0.276524538,0.401551962
361984.7463,0.99848938,-0.574737549,-1.808959961,361984.7362,-4.910087146,2.603156875,-1.288759045
361984.7764,0.21131897,0.398178101,-1.237854004,361984.7713,-0.375681482,0.598759041,-0.525186552
361984.8065,-0.219451904,-0.667877197,-0.80632019,361984.8065,0.067084495,0.076263346,-0.101302919
361984.8366,-0.146636963,-0.437225342,-0.902160645,361984.8065,0.067084495,0.076263346,-0.101302919
361984.8666,-0.184173584,-0.442977905,-0.885360718,361984.8415,0.343498246,-0.211484818,0.118071247
361984.8967,-0.213973999,-0.271011353,-0.955276489,361984.8767,0.778156496,-0.287236571,0.182141843
361984.9268,-0.074539185,-0.071594238,-1.261627197,361984.9118,2.570440474,-0.342159208,0.02009142
361984.9569,-0.536239624,-0.364562988,-1.934890747,361984.9469,7.161873471,-1.197792653,-0.512765835
361984.987,-0.582748413,-4.191436768,0.864990234,361984.982,10.34779125,-5.655118179,1.877769851
361985.0171,0.985977173,-4.469787598,-2.217498779,361985.0171,3.242165867,-1.03497018,-1.683254962
361985.0472,0.856140137,-2.548156738,-2.667602539,361985.0171,3.242165867,-1.03497018,-1.683254962
361985.0773,-1.136672974,-1.553817749,-3.281051636,361985.0522,2.998242149,-2.10477211,-7.066865199
361985.1074,-1.855331421,0.167892456,-2.312530518,361985.0873,0.353406803,0.156731824,-6.144658853
361985.1375,-1.98500061,1.319549561,-0.897796631,361985.1224,-1.982839545,0.770387789,-2.418606469
361985.1676,-1.776809692,1.872695923,0.494155884,361985.1576,-4.607392789,0.563718498,0.334759083
361985.1977,-0.787414551,1.251403809,1.476226807,361985.1926,-4.191722345,-3.457272318,1.134432855
361985.2278,-0.581710815,-0.133544922,1.410934448,361985.2278,-3.107746007,-6.082789892,2.642057136
361985.2579,-0.759628296,-1.089141846,1.550888062,361985.2278,-3.107746007,-6.082789892,2.642057136
361985.288,0.353042603,-2.043563843,1.797271729,361985.2629,-0.786352108,-3.80762048,4.957380093
361985.318,2.220443726,-1.820480347,0.201339722,361985.298,1.926125399,-3.508434572,4.533578486
361985.3481,-0.481994629,-7.02204895,0.130950928,361985.3331,-2.571789098,0.935029733,-0.204712133
361985.3783,-1.629928589,-1.092544556,-2.347991943,361985.3682,-7.428327532,4.979709634,-0.078334487
361985.4083,1.533813477,-0.272567749,-1.825683594,361985.4033,-2.292690881,1.625383406,-0.799301729
361985.4384,-0.23449707,-0.027099609,-1.067062378,361985.4384,0.904393527,-0.100307696,-0.095003212
361985.4685,-0.018569946,-0.211975098,-1.111953735,361985.4384,0.904393527,-0.100307696,-0.095003212
361985.4986,-0.185272217,-0.216720581,-1.400604248,361985.4735,3.291993078,-1.284851922,0.302965733
361985.5287,-1.022567749,-0.710754395,-1.042953491,361985.5087,6.754024731,-1.569911891,-0.868677608
361985.5588,-0.402954102,-3.16166687,2.248382568,361985.5437,8.376549766,-4.971599243,-0.627249005
361985.5889,-0.684448242,-4.532943726,-1.773498535,361985.5789,3.862117811,3.548326594,-0.994960712
361985.619,0.250747681,-3.079391479,-2.645111084,361985.6139,3.874356101,0.458232552,-4.102576756
361985.6491,-0.648910522,-1.697616577,-3.316253662,361985.6491,1.027041683,-0.519152894,-5.57071568
361985.6792,-1.588058472,-0.023193359,-2.303848267,361985.6491,1.027041683,-0.519152894,-5.57071568
361985.7093,-1.850952148,1.504211426,-0.585281372,361985.6842,-2.509691639,1.166829943,-3.931254005
361985.7394,-1.361099243,1.890701294,0.543029785,361985.7193,-5.130010456,1.582446325,-1.275021129
361985.7695,-0.973419189,1.613708496,1.61882019,361985.7544,-4.797671921,-3.575552889,1.246882701
361985.7996,-0.243087769,0.427536011,1.435806274,361985.7895,-2.610074702,-4.454324942,3.739781778
361985.8296,0.384750366,-1.814498901,0.856719971,361985.8246,-2.280019561,-1.224646638,4.549767309
361985.8597,1.761428833,-1.891586304,2.431243896,361985.8597,0.695831262,-1.017168279,1.607378573
361985.8898,1.001098633,-3.976333618,-0.345443726,361985.8597,0.695831262,-1.017168279,1.607378573
361985.9199,0.300323486,-0.382995605,-1.502609253,361985.8948,-4.947049691,1.300647663,1.009695716
361985.95,-1.203323364,-0.12689209,-1.424072266,361985.93,-5.075381565,0.696477611,1.70628012
361985.9801,0.404678345,-0.193405151,-1.199996948,361985.965,-1.546175935,0.858271838,-0.705221036
361986.0102,-0.246551514,-0.317810059,-0.94418335,361986.0002,0.46427846,-0.098211256,0.102664061
361986.0403,-0.283493042,-0.236038208,-1.036300659,361986.0353,2.4166589,-0.159725483,-0.147162287
361986.0704,-0.490097046,-0.390594482,-1.401626587,361986.0704,5.780934431,-0.248172791,-1.299021537
361986.1005,-0.422714233,-0.688812256,-1.32522583,361986.0704,5.780934431,-0.248172791,-1.299021537
361986.1306,-0.980880737,-3.441329956,1.477294922,361986.1055,7.718841122,-1.031814334,-1.960186431
361986.1607,0.663360596,-3.468078613,-2.171218872,361986.1406,4.25707472,2.06868388,0.738810954
361986.1907,0.081695557,-2.443313599,-1.687713623,361986.1757,2.380172527,-0.732218831,-1.818317176
361986.2208,-0.632705688,-1.972305298,-2.332061768,361986.2108,2.495809112,0.422449254,-5.230487263
361986.2509,-1.635559082,-0.73815918,-2.222183228,361986.2459,-0.859062797,0.726054412,-4.089594378
361986.2811,-1.652740479,0.800292969,-1.127929688,361986.2811,-3.128378048,1.508378222,-1.768269722
361986.3111,-1.188034058,1.621261597,0.249069214,361986.2811,-3.128378048,1.508378222,-1.768269722
361986.3412,-0.865203857,1.226882935,0.871795654,361986.3161,-4.179587918,-1.611522718,1.028295233
361986.3713,-0.093536377,0.492919922,1.482131958,361986.3512,-3.978056398,-3.193396729,2.651046104
361986.4014,0.25680542,-0.633544922,1.020523071,361986.3863,-1.816699839,-4.180504312,4.395625942
361986.4315,1.276000977,-1.238769531,0.984100342,361986.4215,-1.850270049,-1.504260709,2.46270096
361986.4616,0.600463867,-1.759017944,1.277816772,361986.4566,-0.567037596,-1.459174723,1.115354768
361986.4917,1.169662476,-4.960647583,-1.019180298,361986.4917,-4.326725438,3.144221993,-0.980519188
361986.5218,0.452178955,-0.47454834,-1.564727783,361986.4917,-4.326725438,3.144221993,-0.980519188
361986.5519,-0.975006104,0.064819336,-1.394714355,361986.5268,-5.224048272,0.625701975,1.72471239
361986.582,0.481002808,-0.219314575,-1.204116821,361986.5619,-2.262762277,1.206749663,-0.967467834
361986.6121,-0.152770996,-0.308563232,-0.991348267,361986.597,0.097361441,0.008835037,-0.00958232
361986.6422,-0.234695435,-0.257125854,-0.98097229,361986.6321,1.630370708,-0.429700243,0.189769136
361986.6723,-0.415603638,-0.179534912,-1.258392334,361986.6672,4.410118066,-0.054039267,-0.830611714
361986.7023,-0.531906128,-0.37538147,-1.466720581,361986.7023,7.964385107,-0.455844229,-2.252987411
361986.7324,-0.006195068,-2.168716431,0.093887329,361986.7023,7.964385107,-0.455844229,-2.252987411
361986.7625,-0.642623901,-5.039047241,-2.158462524,361986.7374,9.381336477,-1.617151042,1.216042231
361986.7926,1.648742676,-2.787872314,-1.764358521,361986.7726,2.722946926,1.579301931,-0.252603493
361986.8227,-0.446670532,-2.900695801,-2.560440063,361986.8076,2.76784942,-0.350589179,-5.514293949
361986.8528,-1.739089966,-1.106735229,-2.370132446,361986.8428,0.064425595,0.988131301,-4.702011174
361986.8829,-1.652023315,0.644927979,-1.255737305,361986.8779,-1.781611626,2.272355782,-2.215938845
361986.913,-1.490951538,1.224685669,-0.271957397,361986.913,-4.462998858,0.103209476,0.758831267
361986.9431,-0.898773193,1.295959473,0.949966431,361986.913,-4.462998858,0.103209476,0.758831267
361986.9732,-0.077255249,0.88973999,1.369277954,361986.9481,-4.444290684,-2.187615594,1.78634646
361987.0033,-0.219116211,-0.055770874,1.015625,361986.9832,-2.532196415,-4.425814471,3.16021321
361987.0334,0.882003784,-1.255722046,1.014160156,361987.0183,-1.806647471,-1.628872946,4.523791369
361987.0635,1.556152344,-1.240997314,1.91494751,361987.0534,-0.106448679,-0.50172144,1.336197401
361987.0936,0.604187012,-2.111480713,0.799209595,361987.0885,1.072057627,1.823199017,0.560186348
361987.1237,0.288284302,-0.427734375,-0.574066162,361987.1237,-6.001508085,1.018123023,2.041369701
361987.1538,-0.82699585,-0.765380859,-1.680557251,361987.1237,-6.001508085,1.018123023,2.041369701
361987.1839,0.044723511,-0.069335938,-1.175415039,361987.1588,-3.65547462,0.839498417,-0.231512056
361987.214,-0.086669922,-0.262954712,-1.026901245,361987.1939,-0.479466468,0.152901666,0.031543013
361987.2441,-0.189819336,-0.29977417,-0.98336792,361987.229,1.366371016,-0.368598539,0.172215975
361987.2742,-0.38885498,-0.214385986,-1.189758301,361987.2641,3.643330605,-0.061693192,-0.56510787
361987.3042,-0.633636475,-0.368087769,-1.434432983,361987.2992,7.278521525,-0.228513336,-1.870875726
361987.3343,0.576156616,-2.050384521,-0.599273682,361987.3343,10.15959311,-3.597696008,0.121326961
361987.3644,-1.624099731,-6.125427246,-2.235214233,361987.3343,10.15959311,-3.597696008,0.121326961
361987.3945,1.425033569,-3.123916626,-2.229263306,361987.3694,3.309339844,3.597056317,0.308296849
361987.4246,-0.553741455,-2.035919189,-2.283660889,361987.4046,2.587745694,-2.252232404,-3.368295573
361987.4547,-1.20703125,-0.866210938,-2.512496948,361987.4396,0.235926245,-0.962614756,-5.025596965
361987.4848,-1.49987793,0.654464722,-0.964935303,361987.4748,-2.768558886,0.373690237,-3.429423109
361987.5149,-1.565750122,1.486068726,0.344116211,361987.5098,-4.51497524,0.972064717,-0.852754035
361987.545,-1.066162109,1.343460083,1.211853027,361987.545,-3.712217528,-2.843281327,2.397190127
361987.5751,-0.429321289,1.017547607,1.678955078,361987.545,-3.712217528,-2.843281327,2.397190127
361987.6052,-0.249420166,-0.551361084,0.539657593,361987.5801,-1.425450049,-3.923410197,3.17144589
361987.6353,0.684082031,-1.008651733,0.868835449,361987.6152,-2.331828164,-2.313782585,3.595842714
361987.6654,1.517715454,-1.275115967,1.138687134,361987.6503,-0.806790804,-2.568748035,1.446016843
361987.6955,1.90007019,-1.153198242,0.338516235,361987.6854,-1.130912955,-1.509104466,-0.368147666
361987.7255,1.796463013,-0.19291687,-1.184143066,361987.7205,-5.573605742,0.705729433,1.707365624
361987.7556,-0.764419556,-0.869522095,-1.492172241,361987.7556,-4.004146855,1.034847408,0.583354252
361987.7857,-0.016693115,-0.143493652,-1.246551514,361987.7556,-4.004146855,1.034847408,0.583354252
361987.8158,-0.207977295,-0.354049683,-0.942779541,361987.7907,-0.593113672,0.226557777,-0.300702312
361987.8459,-0.127548218,-0.519561768,-0.902801514,361987.8259,0.891252425,-0.07067204,-0.065231201
361987.876,-0.285873413,-0.35319519,-0.98008728,361987.861,1.829903259,-0.243375906,0.083825392
361987.9061,-0.512084961,-0.500656128,-1.300964355,361987.8961,4.278248449,-0.06475343,-0.669092859
361987.9362,-0.540512085,-0.500137329,-1.225524902,361987.9312,7.274836775,-1.071920741,-2.747920453
361987.9663,0.664413452,-2.822372437,0.65927124,361987.9663,7.634977114,-7.321712671,-1.472003969
361987.9964,-1.309783936,-2.852020264,-0.104568481,361987.9663,7.634977114,-7.321712671,-1.472003969
361988.0265,1.397354126,-1.448165894,-0.748199463,361988.0014,3.510077209,3.809427701,-1.478308471
361988.0566,-0.21661377,-2.365005493,-1.720657349,361988.0365,4.521226212,-0.482228699,-4.786555354
361988.0867,-1.708068848,-1.693634033,-2.249404907,361988.0716,2.152703949,-1.589656834,-5.265794388
361988.1168,-2.19984436,-0.493469238,-1.917526245,361988.1067,-0.641162424,1.035682575,-2.338472218
361988.1469,-1.404922485,0.520584106,-1.35635376,361988.1418,-2.200006484,1.065083607,1.108687544
361988.177,-0.678359985,0.407958984,-1.072753906,361988.177,-4.015627742,-1.01352907,2.786100862
361988.207,-0.27331543,0.386795044,-0.640197754,361988.177,-4.015627742,-1.01352907,2.786100862
361988.2371,0.09387207,-0.15612793,-0.983428955,361988.212,-4.84558645,-2.241996811,3.143105063
361988.2672,0.367538452,-0.518661499,-1.102706909,361988.2472,-5.86817799,-3.062428326,3.336315802
361988.2973,0.858795166,-0.574020386,-1.124191284,361988.2822,-6.408832715,-3.188781471,2.491900924
361988.3274,0.849533081,-0.966445923,-1.401031494,361988.3174,-6.870444285,-4.374970199,0.879315605
361988.3575,1.165039063,-2.261825562,-1.526229858,361988.3525,-7.407339159,-4.552332999,-1.560756742
361988.3876,2.371170044,-2.992935181,-0.413360596,361988.3876,-5.657306765,-5.389838572,-5.805015266
361988.4177,1.976593018,-3.252532959,0.878265381,361988.3876,-5.657306765,-5.389838572,-5.805015266
361988.4478,-0.288650513,-2.413513184,0.849304199,361988.4227,-1.717818798,-4.097976678,-6.474706004
361988.4779,1.223526001,0.671386719,-0.793045044,361988.4578,-3.514233339,9.890837543,-1.250761329
361988.508,2.453323364,-0.243347168,-1.978393555,361988.4929,0.409691115,2.120073568,-0.01584501
361988.5381,-0.310256958,-0.611236572,-0.935577393,361988.528,0.174555828,0.017690314,-0.035357192
361988.5682,-0.289611816,-0.508926392,-0.897781372,361988.5631,0.058059575,0.001400024,-0.036653352
361988.5983,-0.016586304,-0.342819214,-0.928924561,361988.5983,0.237696715,-0.205366205,0.112696722
361988.6283,-0.199249268,-0.392150879,-0.888305664,361988.5983,0.237696715,-0.205366205,0.112696722
361988.6584,-0.303268433,-0.378768921,-0.870773315,361988.6333,0.466350932,-0.380617385,0.156154983
361988.6885,-0.269775391,-0.419189453,-0.865264893,361988.6685,0.619811329,-0.257286661,-0.16562545
361988.7186,-0.264282227,-0.50479126,-0.830184937,361988.7036,0.643612,-0.256511681,-0.315549702
361988.7487,-0.275558472,-0.508010864,-0.810653687,361988.7387,0.46388378,-0.406142985,-0.752492411
361988.7788,-0.238143921,-0.569671631,-0.794784546,361988.7738,0.175977956,-0.458708991,-1.064616489
361988.8089,-0.200332642,-0.527404785,-0.811752319,361988.8089,-0.007516506,-0.318417394,-0.893608524
361988.839,-0.146697998,-0.450653076,-0.873672485,361988.8089,-0.007516506,-0.318417394,-0.893608524
361988.8691,-0.124588013,-0.390258789,-0.912155151,361988.844,0.305255785,0.00597134,-0.182044637
361988.8992,-0.232955933,-0.304641724,-0.999191284,361988.8791,1.350256228,-0.107057478,0.01945599
361988.9293,-0.250320435,-0.340408325,-1.224700928,361988.9142,3.498136128,-0.128675954,-0.220701486
361988.9594,-0.741119385,-0.499954224,-1.462249756,361988.9494,7.763455995,0.209830995,-1.063394897
361988.9895,0.205551147,-0.531951904,-2.192443848,361988.9844,12.26425097,-4.904864687,-1.637767371
361989.0196,-0.56350708,-4.175018311,-4.39944458,361989.0196,3.98711807,-5.20202606,-3.351566394
361989.0497,-1.297714233,-1.154571533,-2.164077759,361989.0196,3.98711807,-5.20202606,-3.351566394
361989.0798,0.547683716,-0.731124878,-1.600692749,361989.0546,-0.114514862,-3.423458161,0.217443641
361989.1099,0.869598389,-1.06338501,-2.1459198,361989.0898,-2.203560206,-4.641539308,1.012610812
361989.14,2.518768311,-0.528091431,-1.323791504,361989.1249,-5.573179104,-4.849783592,1.856764168
361989.1701,2.65335083,-0.962387085,-1.625610352,361989.16,-7.009490057,-4.963637989,-1.034767247
361989.2001,2.264511108,-1.30947876,-1.011062622,361989.1951,-8.072522764,-4.024088605,-1.980613143
361989.2302,1.412078857,-1.155929565,0.107711792,361989.2302,-6.918520202,-2.574427492,-0.96161181
361989.2603,0.949645996,-1.297683716,1.484481812,361989.2302,-6.918520202,-2.574427492,-0.96161181
361989.2904,0.027618408,-2.387237549,1.94909668,361989.2653,-3.570196473,-0.378233057,-0.479250486
361989.3205,0.336990356,-3.269195557,2.779785156,361989.3005,-0.648862688,-0.913462922,2.751078696
361989.3506,1.098464966,-3.014297485,1.673202515,361989.3355,3.019775404,-2.608739393,2.254805284
361989.3807,0.82800293,0.076599121,-2.248916626,361989.3707,-4.062163287,3.61469177,-1.468351178
361989.4108,0.919937134,-0.137893677,-1.438735962,361989.4058,-0.919276337,0.69439715,-0.130233105
361989.4409,-0.207107544,-0.460235596,-0.872680664,361989.4409,0.105982093,0.075521656,-0.146688777
361989.471,-0.13684082,-0.477737427,-0.910324097,361989.4409,0.105982093,0.075521656,-0.146688777
361989.5011,-0.196334839,-0.369552612,-0.925048828,361989.476,0.184402068,-0.104201238,0.078347802
361989.5312,-0.229812622,-0.182632446,-1.023239136,361989.5111,1.209090049,-0.353118915,0.183360505
361989.5613,-0.213699341,-0.236297607,-1.34147644,361989.5462,3.513661292,-0.58816392,-0.088782334
361989.5913,-0.664535522,-0.366241455,-1.419494629,361989.5813,7.12761936,-0.804095418,-0.928404854
361989.6215,0.272781372,-3.351470947,-0.183914185,361989.6164,9.718340338,-3.650601301,0.69160669
361989.6516,-0.558822632,-4.056564331,-2.546768188,361989.6516,1.867298834,0.095911083,-1.393131524
361989.6816,0.191970825,-1.926895142,-1.639465332,361989.6516,1.867298834,0.095911083,-1.393131524
361989.7117,-0.976196289,-1.617202759,-2.658737183,361989.6866,2.700045871,-1.278683508,-4.956503913
361989.7418,-1.84954834,-0.150238037,-2.048629761,361989.7218,-0.350022458,-0.4038018,-5.107936047
361989.7719,-1.569259644,1.215789795,-0.526641846,361989.7568,-2.47159938,1.23677201,-2.712142481
361989.802,-1.353988647,1.617248535,0.356201172,361989.792,-4.198316865,0.162877867,0.680895722
361989.8321,-0.283874512,1.565505981,0.935577393,361989.8271,-3.943843833,-2.586874308,2.07701478
361989.8622,0.372238159,0.33253479,1.172225952,361989.8622,-3.092532433,-5.699458746,2.196027987
361989.8923,-0.538146973,-1.432067871,1.540908813,361989.8622,-3.092532433,-5.699458746,2.196027987
361989.9224,1.834136963,-2.486328125,1.979660034,361989.8973,-1.107171406,-0.961850961,4.383110151
361989.9525,1.565200806,-1.858505249,1.29083252,361989.9324,1.617467692,-1.617728682,1.934966562
361989.9826,0.975479126,-0.597885132,0.147521973,361989.9675,-4.415790599,3.550621973,-0.061051104
361990.0127,-0.775482178,-0.535217285,-1.355499268,361990.0026,-5.534808811,1.327905649,0.977923671
361990.0428,0.299072266,-0.061843872,-1.276031494,361990.0377,-1.997997193,1.068151036,-0.547526479
361990.0729,-0.114105225,-0.203308105,-1.012268066,361990.0729,0.343435928,-0.118812671,0.109829296
361990.1029,-0.028488159,-0.24621582,-1.018463135,361990.0729,0.343435928,-0.118812671,0.109829296
361990.133,-0.192672729,-0.171905518,-1.218658447,361990.1079,2.20495517,-0.711848845,0.301579824
361990.1631,-0.74911499,-0.452560425,-1.374160767,361990.1431,5.214857171,-1.26148721,-0.125859928
361990.1932,0.522735596,-2.037078857,-0.441665649,361990.1782,7.422678967,1.008257076,-1.46085651
361990.2233,-1.043212891,-4.595809937,-1.127090454,361990.2133,6.792140958,-1.67694833,-1.403280831
361990.2534,-0.335342407,-3.731658936,-1.979187012,361990.2484,3.759881187,-0.129432558,-3.285436109
361990.2835,-1.05078125,-2.720565796,-2.401763916,361990.2835,2.597160501,-1.147589936,-4.594005078
361990.3136,-1.637680054,-1.258987427,-2.458862305,361990.2835,2.597160501,-1.147589936,-4.594005078
361990.3437,-1.805084229,0.464981079,-1.590164185,361990.3186,-0.644337445,0.446826233,-3.907068774
361990.3738,-1.735839844,1.465774536,-0.396850586,361990.3537,-3.608557178,1.794661914,-1.798108577
361990.4039,-1.200744629,1.762191772,0.874298096,361990.3888,-5.049279924,0.175716967,1.742267149
361990.434,0.009231567,1.086654663,1.198959351,361990.424,-4.155549161,-2.824263428,3.067785541
361990.4641,0.012374878,-0.18309021,0.728210449,361990.459,-3.775035639,-3.622427187,3.207915218
361990.4942,0.569198608,-0.878967285,1.291427612,361990.4942,-2.272944075,-1.63311909,3.119224764
361990.5243,1.057449341,-1.971984863,1.211181641,361990.4942,-2.272944075,-1.63311909,3.119224764
361990.5544,2.031494141,-4.238479614,-0.695480347,361990.5293,0.037409956,-0.670602338,2.009315894
361990.5845,0.914352417,-0.09866333,-1.963623047,361990.5644,-5.363285791,2.788410888,0.924520367
361990.6145,-0.983474731,0.268997192,-1.191238403,361990.5995,-3.65469165,1.607011856,0.030700655
361990.6446,0.303390503,-0.372116089,-1.070907593,361990.6346,-1.497702142,0.622992475,-0.232500621
361990.6747,-0.106521606,-0.320419312,-1.000076294,361990.6697,-0.111653029,0.066070097,-0.077684143
361990.7048,-0.207077026,-0.235153198,-0.979705811,361990.7048,1.316521434,-0.419676371,0.136379414
361990.7349,-0.227615356,-0.135498047,-1.055145264,361990.7048,1.316521434,-0.419676371,0.136379414
361990.765,-0.499298096,-0.39881897,-1.428634644,361990.7399,3.641729513,-0.795149594,-0.148747667
361990.7951,-0.723175049,-1.009765625,-0.822357178,361990.775,6.885389413,-0.153913667,-1.441356578
361990.8252,-1.172805786,-3.853439331,0.418487549,361990.8101,8.945119213,-3.581951932,0.353351143
361990.8553,0.063537598,-3.492721558,-2.184066772,361990.8453,3.089050616,1.563636685,-0.777029446
361990.8854,-0.292434692,-1.953887939,-1.624649048,361990.8804,3.303384484,-1.320950271,-3.091545998
361990.9155,-0.827255249,-1.603286743,-2.383026123,361990.8804,3.303384484,-1.320950271,-3.091545998
361990.9456,-1.607009888,-0.458557129,-2.197967529,361990.9155,1.944915066,-0.358804498,-4.712574336
361990.9757,-1.525360107,0.793884277,-1.176300049,361990.9505,-1.584386438,1.246188149,-3.054105415
361991.0058,-0.96937561,1.303344727,0.156707764,361990.9857,-4.361599532,1.215028632,-0.354035043
361991.0358,-0.084960938,1.22618103,0.783721924,361991.0208,-4.745582088,-1.314640177,1.859248631
361991.0659,0.723770142,0.279830933,0.872314453,361991.0559,-4.530792819,-3.827556638,1.33205805
361991.096,0.378768921,-0.476593018,0.961639404,361991.091,-3.917633534,-2.387639232,1.389831601
361991.1262,0.843582153,-1.100585938,1.383239746,361991.1262,-1.436331725,-2.236450512,1.729992374
361991.1563,0.301025391,-2.284240723,1.161071777,361991.1262,-1.436331725,-2.236450512,1.729992374
361991.1864,1.012924194,-2.136703491,0.890014648,361991.1613,0.565843967,-0.464493111,2.417143062
361991.2165,1.252960205,0.036743164,-0.918579102,361991.1964,-3.977608987,3.774806074,0.749543493
361991.2466,-0.885192871,-0.007217407,-1.228515625,361991.2315,-3.784907444,0.658675371,1.230026223
361991.2766,0.104385376,-0.341384888,-1.034500122,361991.2666,-1.41745737,0.724535878,-0.493353788
361991.3067,-0.295837402,-0.352706909,-0.900543213,361991.3017,-0.703045766,0.330213067,-0.219552332
361991.3368,-0.12008667,-0.331329346,-0.961959839,361991.3368,0.34389772,-0.17717558,0.068118601
361991.3669,-0.150482178,-0.291610718,-0.974060059,361991.3368,0.34389772,-0.17717558,0.068118601
361991.397,-0.27204895,-0.199737549,-0.989334106,361991.3719,1.561106681,-0.480921885,0.172896413
361991.4271,-0.394943237,-0.412261963,-1.336746216,361991.407,3.589708389,-0.468476135,-0.361341958
361991.4572,-0.781951904,-0.75869751,-0.798828125,361991.4421,6.436594571,-0.083207006,-1.122151954
361991.4873,-0.12713623,-2.084411621,0.486923218,361991.4773,7.695356835,-0.624705686,-0.250763248
361991.5174,-0.164840698,-3.748077393,-2.002822876,361991.5124,3.32249373,3.867301387,0.584053065
361991.5475,0.760131836,-2.075790405,-1.400283813,361991.5124,3.32249373,3.867301387,0.584053065
361991.5776,-0.819412231,-2.23840332,-1.600616455,361991.5475,2.519326955,-1.469508587,-2.310070937
361991.6077,-1.234680176,-1.800460815,-2.158538818,361991.5825,2.416785133,0.553341225,-5.26182681
361991.6378,-1.879516602,-0.423843384,-1.528640747,361991.6177,0.376376567,1.225718027,-3.647750654
361991.6678,-1.21913147,0.595321655,-0.871368408,361991.6528,-1.486250017,2.302827405,-0.829099572
361991.6979,-0.441665649,1.246887207,0.161911011,361991.6879,-3.181073484,-0.579067894,1.692884952
361991.728,0.240310669,0.934295654,0.304397583,361991.723,-3.824747802,-2.67745321,2.163225566
361991.7581,0.533004761,0.251480103,0.351654053,361991.7581,-4.53317049,-3.014598219,0.988323049
361991.7882,0.409988403,-0.253082275,0.813568115,361991.7581,-4.53317049,-3.014598219,0.988323049
361991.8183,0.324645996,-0.775726318,1.144729614,361991.7932,-3.812134005,-3.115815917,1.428172865
361991.8484,0.70173645,-1.800643921,1.356307983,361991.8283,-1.40246111,-1.711206169,1.681879439
361991.8785,1.349807739,-2.11277771,0.523574829,361991.8634,0.725598479,0.312217288,1.052522808
361991.9086,0.444854736,-0.992385864,0.071670532,361991.8986,-4.151284375,1.536360589,1.169106413
361991.9387,-0.524932861,-0.915969849,-1.071777344,361991.9337,-4.431331742,0.373513137,1.709004267
361991.9688,-0.484512329,-0.057907104,-1.186676025,361991.9688,-2.421145793,1.026085874,-0.683192166
361991.9989,-0.097686768,-0.287139893,-0.956237793,361991.9688,-2.421145793,1.026085874,-0.683192166
361992.029,0.007507324,-0.214813232,-1.056869507,361992.0039,-1.091943451,0.575408444,-0.287947369
361992.0591,-0.085830688,-0.268890381,-1.00440979,361992.039,0.387799931,-0.149311724,0.055891229
361992.0892,-0.235626221,-0.164962769,-0.990264893,361992.0741,1.772019452,-0.646966251,0.285425089
361992.1193,-0.344192505,-0.228393555,-1.314407349,361992.1092,4.144856036,-0.585054946,-0.373858282
361992.1494,-0.729232788,-0.523666382,-1.062850952,361992.1443,6.892183669,0.256494105,-1.313296613
361992.1794,0.284515381,-1.959823608,0.093383789,361992.1794,8.301514137,-2.152572123,-0.354331719
361992.2095,-1.226074219,-4.267822266,-1.672805786,361992.1794,8.301514137,-2.152572123,-0.354331719
361992.2396,0.457489014,-2.777481079,-1.996170044,361992.2145,3.976199642,2.623952701,-0.215798873
361992.2697,-0.480514526,-2.08392334,-1.852340698,361992.2497,3.262519874,-1.222766446,-2.487766366
361992.2998,-1.16758728,-1.781585693,-2.742553711,361992.2847,2.088292735,0.127503365,-4.567911426
361992.3299,-1.665359497,-0.151199341,-1.718551636,361992.3199,-1.231174578,1.495725278,-3.377627289
361992.36,-1.27444458,0.936828613,-0.424438477,361992.355,-3.596858977,1.868634143,-1.447336972
361992.3901,-0.955245972,1.207977295,0.602539063,361992.3901,-3.79069982,-1.669800139,1.423179704
361992.4202,-0.745269775,0.795761108,1.045333862,361992.3901,-3.79069982,-1.669800139,1.423179704
361992.4503,-0.032958984,0.356063843,1.222381592,361992.4252,-3.388836801,-2.536402878,2.764782257
361992.4804,0.070800781,-0.302337646,0.940826416,361992.4603,-1.787846619,-3.38691027,3.436529755
361992.5105,0.505386353,-0.890899658,0.906402588,361992.4954,-1.367086874,-2.091923955,3.632401791
361992.5406,0.916091919,-1.340942383,1.331115723,361992.5305,0.310027105,-1.394376818,1.890757022
361992.5707,1.53604126,-3.276504517,-0.473815918,361992.5656,-2.039791778,3.183831986,-3.730547
361992.6007,0.98197937,-0.617355347,-1.232559204,361992.6007,-5.888014279,1.320428292,0.549139023
361992.6308,-0.466918945,-0.602722168,-1.519104004,361992.6007,-5.888014279,1.320428292,0.549139023
361992.661,-0.097625732,-0.16305542,-1.199874878,361992.6358,-3.25275353,1.522979536,-0.425380596
361992.691,-0.081283569,-0.461364746,-0.918777466,361992.671,-0.588371114,0.247004729,-0.118455008
361992.7211,-0.11114502,-0.462478638,-0.908462524,361992.7061,0.367925292,-0.120366625,0.002510029
361992.7512,-0.231185913,-0.343643188,-0.952056885,361992.7412,1.366201639,-0.23919208,0.051181429
361992.7813,-0.419174194,-0.344085693,-1.147033691,361992.7763,3.503372435,-0.275149814,-0.540622234
361992.8114,-0.50630188,-0.338485718,-1.178787231,361992.8114,6.116130006,-0.979322363,-2.073044274
361992.8415,0.540740967,-1.698806763,-0.730911255,361992.8114,6.116130006,-0.979322363,-2.073044274
361992.8716,-1.162597656,-3.659072876,0.240859985,361992.8465,6.526089567,-6.012256071,-1.185950375
361992.9017,0.691619873,-1.3046875,-0.375564575,361992.8816,2.089345749,1.11005561,-0.692173677
361992.9318,0.342041016,-1.244369507,-0.409667969,361992.9167,2.813375093,-0.225023264,-2.993363238
361992.9619,-0.412811279,-1.82963562,-0.949630737,361992.9518,3.99033943,-0.428566535,-4.964624957
361992.992,-1.533126831,-1.792877197,-1.503295898,361992.9869,3.308520123,1.609456371,-4.259601528
361993.0221,-1.622421265,-1.123138428,-2.018859863,361993.0221,0.104202037,1.422591678,-0.406791731
361993.0522,-1.122787476,0.306945801,-1.071472168,361993.0221,0.104202037,1.422591678,-0.406791731
361993.0823,-0.659561157,0.259979248,-1.136383057,361993.0571,-1.384740436,0.118197481,1.433026743
361993.1123,-0.204177856,0.183578491,-1.157196045,361993.0923,-3.072491613,-1.474653815,2.009814438
361993.1424,-9.16E-05,-0.006164551,-1.176422119,361993.1274,-4.14087248,-2.98729416,2.652055442
361993.1725,0.393844604,-0.228683472,-1.238494873,361993.1625,-4.795369352,-2.558795802,2.842323921
361993.2026,0.737060547,-0.670959473,-1.579147339,361993.1976,-5.716780478,-2.630380507,2.125007873
361993.2327,0.757720947,-0.824188232,-1.417221069,361993.2327,-6.491271399,-2.534411899,0.736616775
361993.2628,0.29776001,-1.023590088,-1.352539063,361993.2327,-6.491271399,-2.534411899,0.736616775
361993.2929,0.029449463,-1.235519409,-1.480682373,361993.2678,-6.901059985,-2.245775837,0.250603725
361993.323,0.655014038,-1.732223511,-1.55960083,361993.3029,-7.036087046,-2.642658212,0.113756127
361993.3531,1.250350952,-2.849227905,-1.489517212,361993.338,-6.555251181,-3.167666332,-2.738257173
361993.3832,1.346343994,-3.022842407,1.022659302,361993.3732,-5.208313784,-2.137424329,-4.553795074
361993.4133,1.029052734,-2.756912231,1.916091919,361993.4083,0.606732545,0.818394463,-3.161886207
361993.4434,-2.594665527,1.61555481,-1.175918579,361993.4434,5.927747578,7.82528128,-5.150110398
361993.4735,2.341461182,-1.997070313,-3.113342285,361993.4434,5.927747578,7.82528128,-5.150110398
361993.5036,0.47076416,-1.397964478,-1.688400269,361993.4785,2.34865881,2.024344911,-1.144638887
361993.5337,-0.055465698,-0.303649902,-0.872299194,361993.5136,0.06474837,0.361727051,-0.126029305
361993.5638,-0.139328003,-0.437408447,-0.932937622,361993.5487,0.208220315,-0.080535589,0.041395111
361993.5939,-0.157119751,-0.408706665,-0.896484375,361993.5838,0.171152309,-0.206754245,0.141803474
361993.624,-0.209060669,-0.399459839,-0.874481201,361993.6189,0.159914301,-0.131921282,0.071611336
361993.654,-0.236618042,-0.404281616,-0.863769531,361993.654,0.135242777,0.030495325,-0.064497501
361993.6841,-0.227722168,-0.381469727,-0.868850708,361993.654,0.135242777,0.030495325,-0.064497501
361993.7142,-0.160186768,-0.416503906,-0.881072998,361993.6891,0.206285262,0.162573734,-0.25825472
361993.7443,-0.144256592,-0.389083862,-0.894454956,361993.7243,0.29509476,0.043516319,-0.247012186
361993.7744,-0.154006958,-0.436950684,-0.895629883,361993.7593,0.576661728,-0.128113761,-0.262623104
361993.8045,-0.146240234,-0.445953369,-0.883178711,361993.7945,0.771659448,-0.237159022,-0.054232346
361993.8346,-0.152297974,-0.450973511,-0.872268677,361993.8296,1.043595892,-0.329463653,0.03680462
361993.8647,-0.143981934,-0.448562622,-0.886611938,361993.8647,1.60390155,-0.478655003,0.169100876
361993.8948,-0.178421021,-0.429519653,-0.953018188,361993.8647,1.60390155,-0.478655003,0.169100876
361993.9249,-0.259765625,-0.393890381,-1.08757019,361993.8998,2.783892302,-0.79462575,0.134978325
361993.955,-0.513534546,-0.418441772,-1.501998901,361993.9349,5.238373416,-1.17236266,-0.495999638
361993.9851,0.369262695,-0.443161011,-2.002838135,361993.97,9.554683763,-3.637803214,-1.437143191
361994.0152,-0.377258301,-1.778121948,-1.682601929,361994.0051,9.568437392,-8.244200247,-3.396863036
361994.0452,-1.46383667,-1.780563354,-3.280456543,361994.0402,0.332094057,-3.712012464,-2.671501578
361994.0753,-0.792221069,-0.33392334,-1.53918457,361994.0753,-1.577782331,-3.143709068,1.440289449
361994.1054,0.575485229,-0.935150146,-2.180953979,361994.0753,-1.577782331,-3.143709068,1.440289449
361994.1356,2.002059937,-0.612106323,-1.473449707,361994.1104,-4.678363369,-2.927689952,1.663379791
361994.1657,1.112533569,-1.636474609,-1.526992798,361994.1456,-5.879332907,-3.363463533,0.114377176
361994.1958,1.551116943,-1.826812744,-1.167770386,361994.1807,-7.472541332,-2.20768997,0.190280463
361994.2258,0.763198853,-1.839004517,-0.804916382,361994.2158,-7.484329016,-1.293864325,-0.549474049
361994.2559,0.854492188,-1.740646362,-0.697631836,361994.2509,-6.29820234,-1.161300155,-0.863368063
361994.286,0.65133667,-1.473495483,-0.135299683,361994.286,-4.805236363,-1.299425804,-1.84581751
361994.3161,0.599105835,-1.083206177,1.100006104,361994.286,-4.805236363,-1.299425804,-1.84581751
361994.3462,0.226959229,-1.390060425,1.614501953,361994.3211,-1.324458187,-1.370180402,-2.166650924
361994.3763,0.116271973,-2.733352661,0.951370239,361994.3562,1.862283037,-0.843262795,-1.157433246
361994.4064,0.665344238,-2.356063843,2.274749756,361994.3913,1.564174643,-1.06750016,-0.071687237
361994.4365,-2.30027771,-6.18762207,-4.748428345,361994.4265,-1.117016048,6.897540352,-2.92979811
361994.4666,-0.965652466,0.108535767,-1.539520264,361994.4615,-3.139146274,1.557543638,-0.462404394
361994.4967,0.615188599,0.11907959,-1.111251831,361994.4967,0.302489826,-0.148370031,0.031548339
361994.5268,-0.273742676,-0.552276611,-0.827056885,361994.4967,0.302489826,-0.148370031,0.031548339
361994.5569,-0.066513062,-0.442230225,-0.910812378,361994.5318,-0.02137027,0.080425867,-0.133125564
361994.587,-0.151168823,-0.341751099,-0.899841309,361994.5669,-0.006044843,-0.022199845,-0.037410755
361994.617,-0.176940918,-0.462051392,-0.877578735,361994.602,0.37633662,-0.176331624,-0.091299021
361994.6471,-0.162200928,-0.42791748,-0.903808594,361994.6371,0.593468405,-0.301969444,0.036329778
361994.6772,-0.148468018,-0.36605835,-0.93397522,361994.6722,1.237933681,-0.438800264,0.081159568
361994.7073,-0.022842407,-0.235595703,-1.114822388,361994.7073,3.230346225,-1.224658089,0.37172003
361994.7374,-0.342010498,-0.271972656,-1.313201904,361994.7073,3.230346225,-1.224658089,0.37172003
361994.7675,-0.463897705,-0.935638428,-1.064865112,361994.7424,5.889701658,-1.503434863,-0.350496501
361994.7976,-0.10874939,-3.104400635,0.065689087,361994.7775,6.839897295,-3.673725529,0.505218437
361994.8277,0.537353516,-2.843963623,-1.058349609,361994.8126,2.245832562,0.641742993,-2.439767148
361994.8578,-0.370849609,-2.79019165,-1.402297974,361994.8478,4.383017739,-0.766773613,-4.588651592
361994.8879,-1.248779297,-2.589019775,-2.541275024,361994.8829,2.371724448,-0.382556699,-4.616477364
361994.918,-1.557296753,-0.890625,-1.980041504,361994.918,-0.391772302,0.824709617,-3.285457681
361994.9481,-1.426010132,0.429138184,-1.257751465,361994.918,-0.391772302,0.824709617,-3.285457681
361994.9782,-1.114547729,1.486953735,0.226608276,361994.9531,-3.38266093,0.128394991,-1.679295374
361995.0083,-0.770980835,1.539825439,0.718460083,361994.9882,-3.674647782,-2.684375032,0.337072304
361995.0384,-0.006637573,0.34185791,0.670669556,361995.0233,-4.133605246,-4.334380162,1.116431484
361995.0685,-0.082351685,-0.356704712,0.943756104,361995.0584,-3.715851145,-4.244242279,2.792342246
361995.0986,0.899459839,-0.879608154,1.26234436,361995.0935,-1.768492895,-2.895007106,3.225198069
361995.1286,0.661865234,-1.955734253,0.657424927,361995.1286,-0.781873203,-1.256506567,2.26292686
361995.1587,1.538238525,-1.13458252,0.367095947,361995.1286,-0.781873203,-1.256506567,2.26292686
361995.1888,0.530426025,-1.533493042,-0.379562378,361995.1637,-4.181987959,2.431808558,-2.452044854
361995.2189,-0.414047241,-0.033233643,-1.270645142,361995.1989,-4.497304101,1.375304058,0.798516629
361995.249,-0.115783691,-0.158432007,-0.975067139,361995.2339,-1.531042256,0.98195117,-0.506574252
361995.2791,-0.202102661,-0.381088257,-0.894256592,361995.2691,-0.518603751,0.231360788,-0.146513541
361995.3092,-0.212554932,-0.407943726,-0.902084351,361995.3041,-0.002997654,-0.030799991,-0.018232001
361995.3393,-0.177520752,-0.35710144,-0.930770874,361995.3393,0.729725846,-0.270995549,0.096463157
361995.3694,-0.164382935,-0.245071411,-0.977142334,361995.3393,0.729725846,-0.270995549,0.096463157
361995.3995,-0.139053345,-0.137878418,-1.174560547,361995.3744,2.314112284,-0.758315147,0.059761601
361995.4296,-0.457260132,-0.551513672,-1.420516968,361995.4095,5.129535881,-1.466711736,-0.233904107
361995.4597,-0.014038086,-1.263214111,-1.059738159,361995.4446,6.850133421,-0.506704747,-1.386347388
361995.4898,-3.202590942,-3.71975708,-0.043380737,361995.4797,5.995439274,-0.21194448,0.39904859
361995.5198,0.899307251,-2.117538452,-0.914810181,361995.5148,3.421938828,3.870224473,0.700158899
361995.5499,0.272994995,-2.466796875,-1.73500061,361995.5148,3.421938828,3.870224473,0.700158899
361995.58,-1.192169189,-2.700805664,-2.563613892,361995.5499,4.030128654,-1.080188791,-3.81584006
361995.6101,-1.784042358,-1.294067383,-2.275161743,361995.585,1.356806007,-0.793011342,-5.104686457
361995.6402,-1.578094482,0.277954102,-1.035125732,361995.6202,-1.888742607,1.724633561,-3.763156609
361995.6703,-1.031051636,1.035812378,0.064025879,361995.6553,-3.661692036,1.852165688,-1.605717826
361995.7004,-0.783889771,1.326538086,0.881378174,361995.6904,-3.657727654,-1.296322423,1.554609101
361995.7305,-0.257751465,0.758041382,0.669937134,361995.7255,-3.42825052,-2.397465764,3.082184188
361995.7606,0.217483521,-0.084671021,0.482330322,361995.7606,-3.649834044,-2.689133569,3.160946112
361995.7907,0.59197998,-0.61479187,1.011993408,361995.7606,-3.649834044,-2.689133569,3.160946112
361995.8208,0.647445679,-1.398773193,1.534957886,361995.7957,-2.556917474,-1.895659103,2.404960432
361995.8509,0.564178467,-2.197463989,1.035232544,361995.8308,0.323676338,-1.09616536,2.106956434
361995.881,-0.054946899,-6.916290283,-2.87399292,361995.8659,-2.849733634,4.214950969,-2.048961574
361995.9111,-1.350814819,-0.685913086,-1.308486938,361995.901,-5.454166163,2.016172735,0.932933559
361995.9412,0.120117188,0.007644653,-1.205459595,361995.9361,-1.623025177,1.175664714,-0.771123087
361995.9713,-0.307388306,-0.378143311,-0.871261597,361995.9713,-0.276241178,0.307019597,-0.241681603
361996.0014,-0.000183105,-0.413772583,-0.95690918,361995.9713,-0.276241178,0.307019597,-0.241681603
361996.0314,-0.094406128,-0.367202759,-0.963592529,361996.0063,0.461213694,-0.218554978,0.106528574
361996.0615,-0.177261353,-0.246032715,-1.005981445,361996.0415,1.741164068,-0.596892431,0.260748238
361996.0916,-0.28364563,-0.408737183,-1.271484375,361996.0765,3.977775168,-1.139331473,0.10624335
361996.1217,-1.01449585,-0.804962158,-0.757232666,361996.1117,6.537926785,0.452824471,-0.709380094
361996.1518,-0.295425415,-2.214431763,0.413864136,361996.1468,7.939413179,-2.885243958,1.034883361
361996.1819,-0.885452271,-3.962921143,-1.770355225,361996.1468,7.939413179,-2.885243958,1.034883361
361996.212,1.033508301,-2.518249512,-1.462478638,361996.1819,3.480608799,3.702186731,-0.207198993
361996.2421,-0.782653809,-3.038818359,-2.504959106,361996.217,4.317428875,-2.217571629,-3.597848075
361996.2722,-1.097412109,-1.206085205,-2.34538269,361996.2521,1.580324585,-0.975739613,-4.608631692
361996.3023,-1.199356079,0.461364746,-1.105194092,361996.2872,-1.216034507,1.589181459,-3.768080794
361996.3324,-1.046615601,1.071533203,-0.284240723,361996.3224,-3.051731739,1.349144625,-1.824380928
361996.3625,-1.204269409,1.276565552,0.661636353,361996.3575,-3.645276843,-0.697128754,1.617262096
361996.3926,-0.843658447,0.579238892,0.323547363,361996.3926,-4.050819818,-1.518330189,3.689549499
361996.4227,0.170532227,0.138595581,0.511749268,361996.3926,-4.050819818,-1.518330189,3.689549499
361996.4528,0.782608032,-0.792236328,0.806976318,361996.4277,-4.142821914,-2.86320337,3.204139122
361996.4828,0.675170898,-1.310119629,1.970718384,361996.4628,-3.447128071,-2.114940591,0.74064454
361996.513,0.900787354,-1.094055176,1.759887695,361996.4979,0.325982103,-1.782634813,1.3699796
361996.5431,1.037612915,-0.345596313,0.226852417,361996.533,-5.656234576,1.13521103,2.027311939
361996.5732,-1.272979736,-0.388458252,-1.413772583,361996.5681,-4.322002055,1.670104272,-0.195665907
361996.6032,0.465530396,-0.213134766,-1.163131714,361996.6032,-1.111019141,0.43792728,-0.046785082
361996.6333,-0.271713257,-0.288818359,-0.923828125,361996.6032,-1.111019141,0.43792728,-0.046785082
361996.6634,-0.138397217,-0.308700562,-0.940612793,361996.6383,0.246478755,-0.109319567,0.071541029
361996.6935,-0.24382019,-0.240539551,-0.977462769,361996.6735,1.450044875,-0.416166591,0.148470432
361996.7236,-0.426467896,-0.332305908,-1.220779419,361996.7085,3.524201018,-0.374480663,-0.462945548
361996.7537,-0.39755249,-0.398956299,-1.253707886,361996.7437,6.137151934,-0.512844665,-1.634714057
361996.7838,0.049987793,-2.017791748,-0.024154663,361996.7787,7.484928227,-2.172802293,-0.611305725
361996.8139,-0.842010498,-3.978561401,-1.728134155,361996.8139,3.055208763,2.486743712,0.336309841
361996.844,1.232284546,-2.19291687,-1.242233276,361996.8139,3.055208763,2.486743712,0.336309841
361996.8741,-0.044555664,-3.021575928,-2.280502319,361996.849,3.590114255,-0.15682104,-3.898712574
361996.9042,-1.496246338,-1.865249634,-2.559448242,361996.8841,1.912925175,-0.354978334,-5.315761149
361996.9343,-1.490631104,0.114852905,-1.39239502,361996.9192,-0.966320012,1.944362727,-3.301010542
361996.9644,-1.435211182,0.621704102,-0.778533936,361996.9543,-2.840935615,1.025048839,-0.486381898
361996.9944,-1.220748901,1.197921753,0.575927734,361996.9894,-3.865120259,-0.798880949,2.06514587
361997.0245,-0.50163269,0.933227539,0.717468262,361997.0245,-3.532321529,-2.771966667,3.184321475
361997.0546,-0.075683594,0.24697876,0.922531128,361997.0245,-3.532321529,-2.771966667,3.184321475
361997.0847,0.427627563,-0.150146484,1.447937012,361997.0596,-3.128386038,-3.818338638,3.138622696
361997.1148,0.502883911,-1.482833862,1.014938354,361997.0948,-1.445858385,-2.242487099,2.551076629
361997.1449,1.842803955,-0.684082031,1.183029175,361997.1299,-0.753368325,-0.791911723,1.752313126
361997.175,1.510925293,-3.331756592,0.928359985,361997.165,-6.214790537,2.557012549,-0.406036459
361997.2051,-0.479049683,-0.789306641,-1.492446899,361997.2001,-3.75238865,1.126397299,0.510702152
361997.2352,0.348449707,-0.308349609,-1.128494263,361997.2352,-1.046392211,0.593991183,-0.36302694
361997.2653,-0.160552979,-0.359039307,-0.907012939,361997.2352,-1.046392211,0.593991183,-0.36302694
361997.2954,-0.044509888,-0.292221069,-0.967514038,361997.2703,0.043106458,-0.023703732,0.084534059
361997.3255,-0.196838379,-0.2084198,-1.049316406,361997.3054,1.621388931,-0.405442308,0.23341595
361997.3556,-0.36605835,-0.453445435,-1.352920532,361997.3405,4.247687078,-0.483995706,-0.293634017
361997.3857,-0.450927734,-0.617477417,-1.167800903,361997.3757,7.063133045,-0.527738127,-1.766507508
361997.4158,-0.29776001,-2.293533325,0.937545776,361997.4107,8.330308235,-3.409460587,0.215216173
361997.4459,0.075119019,-3.739654541,-1.921691895,361997.4459,3.560911096,1.87030288,-0.276839324
361997.476,0.909835815,-2.663787842,-1.600906372,361997.4459,3.560911096,1.87030288,-0.276839324
361997.5061,-0.124633789,-2.696456909,-2.196044922,361997.4809,2.671441923,-0.317704998,-4.193417713
361997.5361,-1.075302124,-1.415237427,-1.767318726,361997.5161,0.711230192,-0.387062235,-5.544939476
361997.5662,-1.464416504,-0.299285889,-1.21862793,361997.5512,-1.139813239,1.445764109,-4.016934822
361997.5963,-1.774993896,0.486022949,-0.338180542,361997.5863,-3.499264243,1.416645639,-1.051433043
361997.6264,-1.5418396,0.897201538,0.821304321,361997.6214,-3.808155243,-0.427295408,2.326765229
361997.6565,-0.764358521,0.590286255,0.720626831,361997.6565,-3.198393086,-2.684699405,3.841075376
361997.6866,0.082183838,0.166915894,0.433959961,361997.6565,-3.198393086,-2.684699405,3.841075376
361997.7167,0.180755615,-0.334335327,0.682891846,361997.6916,-3.247322279,-4.068155133,3.209023626
361997.7468,0.90725708,-0.925537109,0.958694458,361997.7267,-2.173816958,-2.378112839,2.206298468
361997.7769,1.065551758,-1.273849487,1.18850708,361997.7618,-0.778466488,-2.045137541,1.064458297
361997.807,0.78767395,-5.99961853,-1.182418823,361997.7969,-3.555403146,2.316336822,-2.206035082
361997.8371,0.094345093,-0.318466187,-0.782119751,361997.832,-4.151779722,0.697548469,1.1239653
361997.8672,-1.062347412,-0.242889404,-1.072921753,361997.8672,-2.015663538,0.927655707,-0.343637263
361997.8973,0.189315796,-0.498275757,-1.056900024,361997.8672,-2.015663538,0.927655707,-0.343637263
361997.9273,-0.257247925,-0.440704346,-0.872879028,361997.9023,-0.602136994,0.085572692,0.011919776
361997.9575,-0.139190674,-0.512924194,-0.874237061,361997.9374,0.221791251,-0.064124658,-0.043619383
361997.9876,-0.171554565,-0.451797485,-0.909408569,361997.9725,0.927994461,-0.09543278,0.013905962
361998.0177,-0.289596558,-0.359054565,-1.079528809,361998.0076,2.529219534,-0.204005064,-0.173784044
361998.0477,-0.545623779,-0.389801025,-1.177764893,361998.0427,5.364826163,-0.189725727,-1.520582957
361998.0778,0.044158936,-0.71257019,-1.167861938,361998.0778,7.130934996,-3.368079591,-1.589022469
361998.1079,0.080703735,-2.005249023,1.02053833,361998.0778,7.130934996,-3.368079591,-1.589022469
361998.1381,-1.336334229,-2.707717896,-0.215194702,361998.1129,6.597951773,-4.01790874,-0.707316677
361998.1681,1.467376709,-0.931777954,-0.219543457,361998.1481,3.321514219,3.81967954,-0.604770594
361998.1982,0.279464722,-1.939666748,-1.151870728,361998.1832,4.353185008,-0.415391345,-3.708124782
361998.2284,-1.017578125,-2.240661621,-1.462203979,361998.2183,3.432552057,-1.022045326,-4.305623881
361998.2584,-1.31640625,-1.576004028,-1.623046875,361998.2534,0.975856259,1.301157658,-3.035055025
361998.2885,-1.312103271,-0.619094849,-1.586990356,361998.2885,-1.221416223,0.926627993,-0.333008321
361998.3186,-1.09223938,-0.017288208,-1.269226074,361998.2885,-1.221416223,0.926627993,-0.333008321
361998.3487,-0.569580078,0.187088013,-0.768707275,361998.3236,-3.276268177,-0.545372781,2.167009385
361998.3788,0.063720703,-0.12713623,-0.940475464,361998.3588,-4.061768606,-1.704296597,3.155248012
361998.4089,0.709365845,-0.244644165,-1.039093018,361998.3938,-5.055802538,-2.353252496,3.354607458
361998.439,1.04927063,-0.529541016,-1.149414063,361998.429,-5.874449735,-2.808593121,2.566935754
361998.4691,1.248092651,-0.72833252,-1.134979248,361998.464,-6.632982462,-2.329014002,1.124487013
361998.4992,0.970794678,-1.128295898,-1.419555664,361998.4992,-7.341243762,-1.938790328,-0.305976969
361998.5293,0.525146484,-1.349319458,-1.49571228,361998.4992,-7.341243762,-1.938790328,-0.305976969
361998.5594,0.495162964,-1.626525879,-1.588546753,361998.5343,-7.770135203,-1.924490751,-0.881426959
361998.5895,1.266937256,-2.858581543,-2.114547729,361998.5694,-7.089822713,-2.63655398,-2.11076289
361998.6196,1.177963257,-3.846664429,0.607696533,361998.6045,-7.102775263,-1.874370059,-3.883084878
361998.6496,0.016433716,-3.301254272,4.427185059,361998.6396,1.515226275,2.119863445,-6.077303248
361998.6797,-1.46786499,-1.979156494,-1.029037476,361998.6747,5.00000878,1.769942719,-0.270258653
361998.7098,0.407623291,-0.038574219,-0.545684814,361998.7098,2.184460547,2.58993934,-1.286350216
361998.7399,1.00994873,-0.509033203,-1.365112305,361998.7098,2.184460547,2.58993934,-1.286350216
361998.77,0.037994385,-0.430664063,-1.000701904,361998.7449,0.087182839,0.707588586,-0.299424528
361998.8001,-0.080184937,-0.408676147,-0.909713745,361998.78,0.153744822,-0.064678595,0.03340403
361998.8302,-0.239959717,-0.438659668,-0.869003296,361998.8151,0.213170599,-0.220319589,0.108128601
361998.8603,-0.217529297,-0.401535034,-0.87399292,361998.8503,0.164474698,-0.104054497,0.035530297
361998.8904,-0.210586548,-0.357131958,-0.874771118,361998.8854,0.289428619,-0.078704666,-0.072762621
361998.9205,-0.219100952,-0.415420532,-0.872207642,361998.9205,0.325044137,-0.089589272,-0.226856051
361998.9506,-0.224182129,-0.467971802,-0.859863281,361998.9205,0.325044137,-0.089589272,-0.226856051
361998.9807,-0.221893311,-0.414367676,-0.872299194,361998.9556,0.276434523,-0.193291433,-0.391717174
361999.0108,-0.179214478,-0.474777222,-0.854034424,361998.9907,0.439699614,-0.609465747,-1.001536855
361999.0409,-0.212509155,-0.508895874,-0.842300415,361999.0258,0.59431529,-1.371408652,-1.900073825
361999.071,-0.215545654,-0.529037476,-0.809539795,361999.0609,0.624132041,-1.393203163,-2.002071563
361999.1011,-0.178070068,-0.542404175,-0.811233521,361999.096,0.565155274,-0.796966136,-1.130703897
361999.1312,-0.170257568,-0.52003479,-0.831176758,361999.1312,0.787833358,-0.322230774,-0.292901914
361999.1613,-0.18927002,-0.492889404,-0.885406494,361999.1312,0.787833358,-0.322230774,-0.292901914
361999.1914,-0.285110474,-0.440490723,-1.037185669,361999.1662,1.669175628,-0.39313877,-0.088765556
361999.2214,-0.378875732,-0.407775879,-1.269256592,361999.2014,3.757987679,-0.692055166,-0.49122459
361999.2515,-0.26625061,-0.484970093,-1.346130371,361999.2365,7.174252376,-1.892969044,-1.654405204
361999.2816,0.075790405,-0.893707275,-1.149002075,361999.2716,9.06757349,-8.463984008,-2.471976218
361999.3117,-0.551986694,-3.429885864,-2.702194214,361999.3067,4.04379866,-3.833147145,-5.713517041
361999.3418,-1.011688232,-1.649978638,-1.927597046,361999.3418,-0.55574526,-4.001671979,-1.383502865
361999.3719,-0.697479248,-0.589752197,-0.724136353,361999.3418,-0.55574526,-4.001671979,-1.383502865
361999.402,-0.104980469,-0.975097656,-1.243240356,361999.3769,-1.053112965,-2.739030821,1.284164027
361999.4321,0.887283325,-1.087432861,-1.217590332,361999.412,-2.868218102,-2.725647105,2.562086404
361999.4622,0.995727539,-1.095840454,-1.05670166,361999.4471,-4.093041041,-2.860779627,1.594223889
361999.4923,1.114700317,-1.063110352,-0.984344482,361999.4822,-5.451580766,-2.001080068,0.47242507
361999.5224,0.5597229,-0.806808472,-0.539871216,361999.5173,-5.643302798,-1.027304004,0.233660161
361999.5525,0.341598511,-0.805374146,-0.212036133,361999.5173,-5.643302798,-1.027304004,0.233660161
361999.5826,0.603515625,-0.514953613,0.524398804,361999.5525,-5.345445275,-0.151465689,0.730509881
361999.6126,0.71182251,-0.423034668,1.281555176,361999.5876,-4.042812758,-0.613009882,-0.195306381
361999.6428,-0.243057251,-1.813903809,1.235870361,361999.6227,-1.240033317,-1.366432269,-1.332815187
361999.6729,-0.123703003,-2.5027771,1.835403442,361999.6578,-0.391476691,-1.810318106,1.622104522
361999.7029,1.581573486,-2.248168945,1.00541687,361999.6929,1.467656891,-1.438022833,1.446082091
361999.733,0.230606079,-0.602737427,-1.90536499,361999.728,-4.600224625,3.84796018,-1.354113817
361999.7631,0.892196655,0.039413452,-1.242706299,361999.7631,-1.044067272,0.41603077,0.12002361
361999.7932,-0.330764771,-0.240585327,-0.904998779,361999.7631,-1.044067272,0.41603077,0.12002361
361999.8233,-0.07901001,-0.435012817,-0.898544312,361999.7982,-0.079914007,0.351614496,-0.324654783
361999.8534,-0.134719849,-0.269897461,-0.951599121,361999.8334,0.078566981,-0.033604566,-0.052516205
361999.8835,-0.1769104,-0.470993042,-0.894729614,361999.8684,0.647138558,-0.263345885,0.006132461
361999.9136,-0.204544067,-0.427322388,-0.895828247,361999.9036,0.892271883,-0.277978091,0.092856438
361999.9437,-0.182556152,-0.327758789,-0.939376831,361999.9386,1.662542759,-0.280377866,0.154350159
361999.9738,-0.257919312,-0.198486328,-1.21647644,361999.9738,4.188194189,-0.259184696,-0.134890174
362000.0039,-0.74887085,-0.545043945,-1.1640625,361999.9738,4.188194189,-0.259184696,-0.134890174
362000.034,-1.362518311,-5.134613037,-1.313217163,362000.0089,6.995697013,1.409522215,-1.006216296
362000.0641,2.034973145,-2.088531494,-1.005508423,362000.044,3.810170191,0.703822077,1.795024637
362000.0942,0.367431641,-3.206283569,-3.640792847,362000.0791,5.729117838,-2.581392191,-4.184560306
362000.1242,-0.99055481,-1.764785767,-3.353271484,362000.1142,2.856427223,-1.04753018,-6.688141321
362000.1543,-1.777313232,-0.233093262,-2.402542114,362000.1493,-0.503161677,0.816222921,-5.160214431
362000.1844,-1.776824951,1.253814697,-0.585601807,362000.1493,-0.503161677,0.816222921,-5.160214431
362000.2145,-1.903610229,1.720611572,0.401199341,362000.1844,-2.508103329,-0.334125783,-2.200692248
362000.2446,-0.705963135,1.372131348,0.511169434,362000.2195,-3.318136265,-3.047494118,2.3581876
362000.2747,0.7059021,0.110092163,0.50402832,362000.2546,-3.772212155,-4.327413332,3.009836753
362000.3048,0.204437256,-0.903137207,1.339996338,362000.2897,-3.556369873,-4.912376399,2.999730856
362000.3349,1.227798462,-1.802368164,1.813613892,362000.3249,-0.712882417,-2.585462833,3.010561932
362000.365,1.687545776,-1.508407593,1.93737793,362000.36,1.597156828,0.762433992,0.477396925
362000.3951,-0.293151855,-4.68977356,-0.48324585,362000.3951,-7.04441049,1.539870102,1.421469156
362000.4252,-0.908630371,-0.866241455,-1.40083313,362000.3951,-7.04441049,1.539870102,1.421469156
362000.4553,0.37550354,-0.077148438,-1.357666016,362000.4302,-3.9450087,1.594340269,-0.613645046
362000.4854,-0.178848267,-0.288116455,-0.983032227,362000.4653,-0.331563556,0.067700218,0.123403961
362000.5155,-0.109176636,-0.34942627,-0.98626709,362000.5004,1.193299634,-0.215574634,0.133546077
362000.5456,-0.292602539,-0.286483765,-1.141433716,362000.5355,3.179098484,-0.450539212,-0.118576182
362000.5757,-0.548141479,-0.395385742,-1.280761719,362000.5706,6.095464408,-0.460914888,-0.932027019
362000.6057,-0.142211914,-1.39453125,-0.751602173,362000.6057,8.225091534,-1.297342946,-0.674234091
362000.6358,-1.704879761,-5.518218994,-1.608505249,362000.6057,8.225091534,-1.297342946,-0.674234091
362000.6659,0.960647583,-2.719055176,-1.35369873,362000.6408,3.721114616,1.999990569,0.313210914
362000.696,-0.541397095,-2.868499756,-2.55569458,362000.676,4.779551773,-1.543988148,-2.788836461
362000.7261,-0.985488892,-1.333236694,-2.766113281,362000.711,1.699903181,-0.635685367,-4.171758224
362000.7562,-1.381088257,0.424972534,-1.316940308,362000.7462,-1.262493353,1.470964271,-3.338627958
362000.7863,-1.292297363,1.195404053,-0.483123779,362000.7813,-3.704547624,1.343547726,-0.800353411
362000.8164,-0.947052002,1.620834351,0.672103882,362000.8164,-4.335507478,-0.959347057,1.496180146
362000.8465,-0.127410889,0.997299194,0.935272217,362000.8164,-4.335507478,-0.959347057,1.496180146
362000.8766,-0.216049194,-0.252563477,0.597290039,362000.8515,-3.92957142,-2.965307635,1.504058309
362000.9067,0.308456421,-0.700683594,1.782592773,362000.8866,-3.888158733,-2.607648562,2.900882838
362000.9368,1.07850647,-1.463241577,1.942718506,362000.9217,-0.911729471,-1.862994101,2.773092651
362000.9669,1.706451416,-1.523071289,0.845291138,362000.9569,0.52776609,0.602654979,0.535765427
362000.997,0.755874634,-0.027297974,-0.663284302,362000.9919,-6.700993737,0.42893991,1.933048553
362001.0271,-0.752090454,-0.258071899,-1.69519043,362001.0271,-3.039197838,0.854256058,-0.28664748
362001.0572,0.390579224,-0.156265259,-1.182067871,362001.0271,-3.039197838,0.854256058,-0.28664748
362001.0873,-0.307373047,-0.391220093,-0.858276367,362001.0621,0.07601514,-0.187328615,0.255876251
362001.1173,-0.180862427,-0.443954468,-0.900314331,362001.0973,0.904347188,-0.130729518,0.03378353
362001.1475,-0.270294189,-0.340560913,-1.121231079,362001.1324,2.302772011,-0.257306102,-0.068792114
362001.1776,-0.52885437,-0.407745361,-1.371246338,362001.1675,5.47508263,-0.318450151,-0.802968102
362001.2076,-0.217712402,-1.197692871,-0.914642334,362001.2026,7.87748989,-0.670594881,-1.472770427
362001.2377,-2.034637451,-5.528778076,-0.681365967,362001.2377,5.197917868,2.42016362,1.270784306
362001.2678,1.654998779,-3.073410034,-1.921676636,362001.2377,5.197917868,2.42016362,1.270784306
362001.2979,-0.332305908,-2.865036011,-2.515808105,362001.2728,3.269954888,-1.892961054,-2.610067245
362001.328,-0.918243408,-1.359390259,-2.530136108,362001.308,1.311751713,-0.323241444,-5.401983652
362001.3581,-1.632843018,0.012268066,-1.535385132,362001.3431,-1.521684973,1.312516573,-4.209950085
362001.3882,-1.703140259,1.023193359,-0.258926392,362001.3782,-4.116966348,2.444504646,-1.72064095
362001.4183,-1.384216309,1.16973877,0.720550537,362001.4133,-4.927606485,-0.059485431,1.566050574
362001.4484,-0.546859741,0.99848938,1.363723755,362001.4484,-4.33979783,-2.085174972,1.80055549
362001.4785,-0.378982544,0.368286133,1.524108887,362001.4484,-4.33979783,-2.085174972,1.80055549
362001.5086,-0.267990112,-0.637374878,1.26184082,362001.4835,-2.504196472,-3.280640555,2.831652368
362001.5387,0.290679932,-1.431472778,1.305526733,362001.5186,-1.051487904,-2.530678946,4.511046545
362001.5688,2.206298828,-1.233779907,1.271575928,362001.5537,-0.118992168,-0.150812682,2.552419395
362001.5989,0.788757324,-1.787811279,0.635253906,362001.5888,-7.739158378,2.69416641,1.214078416
362001.629,-0.557479858,-0.176132202,-1.595275879,362001.6239,-4.394522595,1.236306223,-0.144495398
362001.6591,0.25378418,0.112289429,-1.196243286,362001.6591,-0.652419606,0.345975518,-0.145469848
362001.6892,-0.110168457,-0.30531311,-0.957839966,362001.6591,-0.652419606,0.345975518,-0.145469848
362001.7192,-0.174728394,-0.308227539,-0.985321045,362001.6941,0.574793786,-0.355058495,0.219169636
362001.7493,-0.287902832,-0.179824829,-1.044845581,362001.7293,1.968913876,-0.667072052,0.150072057
362001.7794,-0.394851685,-0.516525269,-1.34715271,362001.7643,4.328109216,-0.643928916,-0.650069633
362001.8095,-0.479446411,-0.672363281,-1.073898315,362001.7995,6.690468392,-0.957968872,-1.746232064
362001.8396,0.0128479,-2.260345459,1.256469727,362001.8346,7.501452076,-3.393649399,-0.465696593
362001.8697,-0.24130249,-3.187393188,-1.591506958,362001.8346,7.501452076,-3.393649399,-0.465696593
362001.8998,-0.113922119,-2.679840088,-1.486679077,362001.8697,3.458222267,1.77975487,-1.679904439
362001.9299,-0.721343994,-2.508056641,-1.900909424,362001.9048,3.844860527,-0.07620449,-3.233240282
362001.96,-1.2134552,-1.679580688,-2.292922974,362001.9399,2.824483671,-0.07861838,-3.775662813
362001.9901,-1.361984253,-0.182617188,-1.51663208,362001.975,-0.005444034,1.60150071,-2.505704087
362002.0202,-1.149017334,0.581130981,-0.7212677,362002.0101,-2.958999405,2.376690977,-0.656115807
362002.0503,-0.728012085,0.963409424,0.329421997,362002.0452,-4.607806644,1.12645722,1.119313024
362002.0804,-0.266479492,0.731292725,0.689437866,362002.0804,-4.641364072,-1.32692241,2.041396865
362002.1104,0.250411987,0.302536011,0.836029053,362002.0804,-4.641364072,-1.32692241,2.041396865
362002.1406,0.112808228,-0.11479187,0.94468689,362002.1155,-4.223740998,-2.937836862,0.924764579
362002.1707,-0.282608032,-0.667480469,1.100097656,362002.1506,-2.70615463,-3.350185811,1.882392566
362002.2008,0.475601196,-1.594314575,0.852844238,362002.1857,-0.988532373,-1.54787876,3.414421257
362002.2309,1.77885437,-1.549194336,0.693603516,362002.2208,0.48150858,-0.622645465,1.361298227
362002.2609,0.963607788,-0.306594849,-0.852203369,362002.2559,-5.881669032,0.228975927,1.922043306
362002.291,-0.764953613,0.227035522,-1.417770386,362002.291,-2.926263296,1.438977043,-0.932329821
362002.3211,0.33770752,-0.277450562,-1.104660034,362002.291,-2.926263296,1.438977043,-0.932329821
362002.3512,-0.097015381,-0.356216431,-0.952026367,362002.3261,-0.618128744,0.210223811,-0.013438045
362002.3813,-0.18977356,-0.306518555,-0.947113037,362002.3613,0.390048171,-0.207349994,0.171837806
362002.4114,-0.25730896,-0.196853638,-1.005386353,362002.3963,1.716303992,-0.436706487,0.145932972
362002.4415,-0.370605469,-0.425689697,-1.259597778,362002.4315,3.988241392,-0.566026927,-0.437254033
362002.4716,-0.481430054,-0.391525269,-1.135391235,362002.4666,6.301367773,-0.770478602,-1.54532905
362002.5017,0.263397217,-1.430267334,-0.587890625,362002.5017,6.918534583,-3.216396321,-0.466075828
362002.5318,-1.590408325,-3.443511963,0.225738525,362002.5017,6.918534583,-3.216396321,-0.466075828
362002.5619,0.646011353,-2.7134552,-1.34413147,362002.5368,4.75092865,1.880410908,0.540091999
362002.592,0.141448975,-2.337265015,-1.007766724,362002.5719,3.761319294,-1.159483347,-1.615231702
362002.6221,-0.720474243,-2.857025146,-2.138259888,362002.607,4.120577595,-0.985542442,-5.089529875
362002.6521,-1.615814209,-1.699203491,-2.357559204,362002.6421,0.01494353,-1.316110509,-3.57940595
362002.6823,-1.698516846,0.008361816,-1.194076538,362002.6772,-2.992401837,2.066720331,-2.000520006
362002.7124,-1.007415771,0.68460083,-0.272857666,362002.7124,-4.845754229,0.888582606,0.394964633
362002.7424,-0.508804321,0.917327881,0.698303223,362002.7124,-4.845754229,0.888582606,0.394964633
362002.7725,0.129302979,0.671569824,0.885482788,362002.7474,-4.662750321,-1.711209631,2.460729156
362002.8026,0.761367798,0.01348877,0.487548828,362002.7826,-3.956075732,-3.036324554,2.321569401
362002.8327,0.46043396,-0.470092773,0.517456055,362002.8176,-3.72702204,-3.409334086,1.403700545
362002.8628,0.840927124,-0.933563232,1.085968018,362002.8528,-3.085768536,-1.378235133,0.975735618
362002.8929,1.088485718,-1.328689575,1.209457397,362002.8879,-0.617604634,-0.82950091,0.098462658
362002.923,-1.053726196,-5.73324585,-1.594512939,362002.923,-5.18393787,2.412569882,1.252296641
362002.9531,-0.493118286,0.074737549,-1.437606812,362002.923,-5.18393787,2.412569882,1.252296641
362002.9832,-0.696899414,0.254806519,-1.213394165,362002.9581,-4.069716544,0.618285604,1.046851074
362003.0133,-0.111068726,-0.346282959,-0.946304321,362002.9932,-0.525786296,0.284273272,-0.307263276
362003.0434,-0.165252686,-0.601074219,-0.815917969,362003.0283,-0.148510113,0.007655257,-0.130445625
362003.0735,-0.273498535,-0.398406982,-0.899581909,362003.0634,0.160347331,-0.113577962,0.020545755
362003.1036,-0.210479736,-0.395294189,-0.907073975,362003.0985,1.05766697,-0.276616151,0.127649572
362003.1337,-0.250732422,-0.28326416,-0.98274231,362003.1337,2.521434581,-0.348037604,-0.116785739
362003.1638,-0.452651978,-0.448699951,-1.27255249,362003.1337,2.521434581,-0.348037604,-0.116785739
362003.1939,-0.342987061,-0.494598389,-1.178756714,362003.1688,5.192002455,-0.464989258,-1.279351961
362003.2239,0.336181641,-1.149414063,-1.055114746,362003.2039,6.492249312,-3.302341323,-1.907739734
362003.2541,-0.983154297,-2.524780273,0.828674316,362003.239,5.524535934,-7.453250458,-1.921037963
362003.2842,-0.108169556,-0.764160156,0.234161377,362003.2741,1.699409431,2.371147607,-0.336793471
362003.3142,1.336303711,-1.291519165,-0.523574829,362003.3092,2.868216505,1.784971204,-3.357371286
362003.3443,-0.341018677,-2.2996521,-0.803390503,362003.3443,3.40601419,-1.171533885,-5.132889333
362003.3744,-1.340240479,-2.217498779,-1.132659912,362003.3443,3.40601419,-1.171533885,-5.132889333
362003.4045,-1.305587769,-1.248306274,-1.191253662,362003.3794,2.093171114,0.245884071,-3.70475828
362003.4346,-1.025588989,-0.551345825,-1.280761719,362003.4146,0.239623778,1.37253943,-1.901981181
362003.4647,-0.753555298,-0.148651123,-1.084945679,362003.4496,-1.994154252,0.30481157,0.33745287
362003.4948,-0.496124268,-0.075973511,-0.804504395,362003.4848,-3.705701305,-1.319437329,2.136644289
362003.5249,-0.134429932,0.164169312,-0.48866272,362003.5198,-3.956340983,-1.410510781,2.559732968
362003.555,0.133056641,-0.035079956,-0.71446228,362003.555,-4.377444275,-1.707852717,2.594802539
362003.5851,0.237106323,-0.344436646,-0.968597412,362003.555,-4.377444275,-1.707852717,2.594802539
362003.6152,0.280532837,-0.544219971,-1.008178711,362003.5901,-5.118045406,-1.814702202,2.46193397
362003.6453,0.377456665,-0.823196411,-1.175323486,362003.6252,-5.448316263,-1.648229866,2.188361546
362003.6754,0.470657349,-1.130264282,-1.532897949,362003.6603,-5.834770765,-1.702684586,1.541795568
362003.7054,0.557769775,-1.227172852,-1.559631348,362003.6954,-6.388470718,-1.836589657,0.485260175
362003.7355,0.853759766,-1.505477905,-1.744338989,362003.7305,-6.154334117,-2.127502722,-1.128892414
362003.7656,1.28453064,-2.332855225,-1.761993408,362003.7656,-6.313927241,-2.304420508,-3.440306117
362003.7958,1.133285522,-3.990234375,0.769042969,362003.7656,-6.313927241,-2.304420508,-3.440306117
362003.8258,0.28086853,-2.143875122,3.266693115,362003.8007,-3.611681066,-2.151444807,-6.501885694
362003.8559,-2.77444458,-0.566329956,-1.019927979,362003.8359,2.655584397,4.683316849,-5.980672578
362003.886,1.347900391,-4.259185791,-5.002120972,362003.8709,3.402661803,4.288428116,-1.737901163
362003.9161,-0.107131958,-1.433959961,-1.841217041,362003.9061,1.328754931,2.294235781,-0.95343484
362003.9462,-0.02154541,-0.616851807,-1.123626709,362003.9412,0.119869413,0.535883139,-0.22077419
362003.9763,-0.037017822,-0.42364502,-0.951461792,362003.9763,0.144267697,-0.000694552,0.00686776
362004.0064,-0.117721558,-0.411865234,-0.90713501,362003.9763,0.144267697,-0.000694552,0.00686776
362004.0365,-0.175308228,-0.414627075,-0.892074585,362004.0114,0.176821646,-0.154355219,0.097287405
362004.0666,-0.180038452,-0.396575928,-0.879592896,362004.0465,0.170655363,-0.1276027,0.065348647
362004.0967,-0.199127197,-0.374923706,-0.879867554,362004.0816,0.243637694,-0.116594258,0.032079373
362004.1268,-0.221969604,-0.421630859,-0.871932983,362004.1167,0.270718847,-0.049706038,-0.13678235
362004.1569,-0.160125732,-0.438201904,-0.879272461,362004.1518,0.250470301,-0.065712435,-0.14130786
362004.187,-0.16897583,-0.393981934,-0.884857178,362004.187,0.453447917,-0.101958856,-0.237235189
362004.2171,-0.153457642,-0.416442871,-0.886459351,362004.187,0.453447917,-0.101958856,-0.237235189
362004.2471,-0.133743286,-0.46031189,-0.877990723,362004.2221,0.753280441,-0.322506677,-0.254928432
362004.2772,-0.154510498,-0.493331909,-0.862930298,362004.2572,1.035965936,-0.489902331,-0.039384424
362004.3073,-0.183761597,-0.535903931,-0.830993652,362004.2923,1.179532156,-0.589561281,0.180200398
362004.3374,-0.212219238,-0.503417969,-0.846847534,362004.3274,1.455902764,-0.672180528,0.252141967
362004.3675,-0.212631226,-0.494445801,-0.911239624,362004.3625,2.22090857,-1.024565742,0.243290685
362004.3976,-0.342041016,-0.531799316,-1.10635376,362004.3976,3.98334224,-1.816848443,-0.044857753
362004.4277,-0.297805786,-0.456634521,-1.544265747,362004.3976,3.98334224,-1.816848443,-0.044857753
362004.4578,0.304321289,-0.316558838,-1.505752563,362004.4327,7.114618873,-6.42445535,-0.583364372
362004.4879,-0.35458374,-2.826507568,-1.043136597,362004.4679,8.736135636,-11.67151014,-3.013500464
362004.518,-0.414978027,-2.776168823,-2.999984741,362004.5029,0.099191033,-2.103267157,-6.393850836
362004.5481,-1.211685181,-1.736618042,-0.964935303,362004.5381,-2.94262416,-4.828333427,-0.22713808
362004.5782,-0.048843384,-1.326477051,-0.905349731,362004.5731,-4.414114406,-0.060459616,1.174255902
362004.6083,1.821502686,-0.653625488,-0.755081177,362004.6083,-5.557580437,-3.495558454,-0.808163131
362004.6384,0.828521729,-0.122497559,-0.425079346,362004.6083,-5.557580437,-3.495558454,-0.808163131
362004.6685,0.565887451,0.268417358,-0.183792114,362004.6434,-5.782896648,-2.039798436,-1.66892609
362004.6986,0.205825806,0.087966919,-0.164505005,362004.6785,-5.782508359,-1.830293412,-1.390294459
362004.7287,-0.05178833,-0.153488159,0.375045776,362004.7136,-5.519662349,-2.089924454,-0.144208841
362004.7587,0.110183716,-1.273635864,0.843185425,362004.7487,-4.512180519,-2.659965829,1.211161988
362004.7888,0.229492188,-2.468612671,2.050048828,362004.7838,-0.741936972,-0.973370997,2.530487731
362004.8189,0.631958008,-3.999908447,0.872344971,362004.8189,1.691899316,-0.312908379,1.647858888
362004.849,1.718185425,-2.335372925,1.240371704,362004.8189,1.691899316,-0.312908379,1.647858888
362004.8791,2.506988525,-0.722229004,-2.598129272,362004.854,-1.614158448,6.946447707,-1.631270057
362004.9092,0.866744995,0.183792114,-1.205093384,362004.8891,-1.375832162,1.59906232,-1.222003983
362004.9393,-0.223617554,-0.684127808,-0.830978394,362004.9242,0.407276693,-0.036127112,-0.225814489
362004.9694,-0.123458862,-0.457427979,-0.883361816,362004.9594,0.128191259,-0.065199243,-0.096815227
362004.9995,-0.15007019,-0.411972046,-0.892959595,362004.9945,0.492500511,-0.354151423,-0.021359617
362005.0296,-0.186080933,-0.496429443,-0.857055664,362005.0296,0.810889409,-0.354434251,0.001219728
362005.0597,-0.220916748,-0.553131104,-0.816635132,362005.0296,0.810889409,-0.354434251,0.001219728
362005.0898,-0.190093994,-0.493606567,-0.859268188,362005.0647,0.68616239,-0.147368948,0.046309442
362005.1199,-0.193557739,-0.329040527,-1.041793823,362005.0998,1.289369974,-0.199400725,0.147404635
362005.15,-0.472290039,-0.308944702,-1.355895996,362005.1349,3.894948195,-0.51803703,-0.057861436
362005.1801,-0.478118896,-1.097366333,-0.984237671,362005.1701,6.777004083,-0.353187891,-1.245006504
362005.2102,-0.851593018,-5.027389526,-1.415145874,362005.2051,6.032852426,-2.114170938,-0.357197813
362005.2403,0.399932861,-3.121612549,-1.633712769,362005.2051,6.032852426,-2.114170938,-0.357197813
362005.2704,-0.762176514,-2.793167114,-2.400360107,362005.2403,3.857942507,-1.897217052,-2.4887536
362005.3005,-1.015716553,-1.388885498,-2.910858154,362005.2753,3.426460875,-0.57710035,-4.058304632
362005.3305,-1.257278442,0.305877686,-2.164520264,362005.3105,-0.332675692,0.314115323,-3.353468157
362005.3606,-1.118209839,1.804031372,-0.386444092,362005.3456,-3.812608581,0.393669804,-2.415896969
362005.3907,-1.149459839,2.49281311,0.703979492,362005.3807,-4.5712228,-1.569946512,0.110358999
362005.4208,-0.322525024,0.934005737,0.641281128,362005.4158,-5.399147385,-3.939808079,1.140289412
362005.4509,-0.303207397,-0.273605347,1.921798706,362005.4509,-3.044092196,-3.418151813,3.447486
362005.481,0.965118408,-1.609466553,2.575592041,362005.4509,-3.044092196,-3.418151813,3.447486
362005.5111,2.379150391,-1.352508545,1.784820557,362005.486,0.998591133,-2.612064616,4.693578008
362005.5412,-0.203033447,-3.281677246,0.426132202,362005.5212,-3.380422277,3.830091168,-1.583957136
362005.5713,-0.408966064,-0.483505249,-1.409637451,362005.5562,-4.811607177,1.914850108,-0.003121757
362005.6014,0.575912476,-0.36668396,-1.229919434,362005.5914,-0.799084148,0.433400439,-0.256482919
362005.6315,-0.21105957,-0.451416016,-0.864318848,362005.6264,0.377284173,-0.013416739,0.132877091
362005.6616,-0.127563477,-0.36920166,-0.964279175,362005.6616,1.716102657,-0.276976477,0.142152348
362005.6917,-0.159133911,-0.322875977,-1.254562378,362005.6616,1.716102657,-0.276976477,0.142152348
362005.7218,-0.669433594,-0.408126831,-1.195770264,362005.6967,4.783685531,-0.772192879,-0.051245345
362005.7519,0.086700439,-2.815246582,0.224533081,362005.7318,8.314594519,0.783817045,-0.981205218
362005.782,-1.311004639,-5.787948608,-3.419662476,362005.7669,6.298561867,1.074446217,1.668337531
362005.8121,1.82484436,-2.132156372,-1.996841431,362005.802,3.682849785,-2.934775292,-2.938977227
362005.8421,-0.927337646,-2.368041992,-3.283950806,362005.8371,-0.231872381,-1.703909108,-6.380212788
362005.8722,-1.850692749,-0.121353149,-1.578933716,362005.8371,-0.231872381,-1.703909108,-6.380212788
362005.9023,-1.91633606,1.157913208,-0.281219482,362005.8722,-3.550964189,1.866940905,-5.117240599
362005.9324,-1.845565796,1.558547974,1.159301758,362005.9073,-5.372641476,0.91166449,-1.646042345
362005.9625,-1.029220581,1.047409058,1.792572021,362005.9425,-4.623603451,-2.931504664,0.925829045
362005.9926,-1.000183105,-0.282669067,2.096755981,362005.9775,-2.954820905,-3.940428063,4.066763098
362006.0227,1.330795288,-1.159561157,1.485244751,362006.0127,-0.582609099,-2.487717896,5.38532984
362006.0528,1.475219727,-1.359161377,0.656341553,362006.0478,-0.916245127,-1.511150839,1.318092433
362006.0829,0.596435547,-5.060073853,-1.554870605,362006.0829,-7.1582047,2.890121537,0.422051378
362006.113,-0.695648193,0.481842041,-2.319824219,362006.0829,-7.1582047,2.890121537,0.422051378
362006.1431,-0.263412476,0.106826782,-1.127365112,362006.118,-3.619365351,1.481958067,-0.072614816
362006.1732,-0.244445801,-0.472381592,-0.888565063,362006.1531,-0.254369168,0.186366682,-0.157667392
362006.2033,-0.12789917,-0.491500854,-0.93586731,362006.1882,0.245438524,-0.160454923,0.07670117
362006.2334,-0.139434814,-0.399383545,-0.962997437,362006.2234,1.09597814,-0.410864237,0.169194086
362006.2635,-0.211715698,-0.266983032,-1.069534302,362006.2584,2.980165144,-0.669075814,0.044793038
362006.2936,-0.427307129,-0.441314697,-1.330871582,362006.2936,5.88877328,-0.541092282,-0.76086752
362006.3237,-0.612518311,-0.812362671,-0.964752197,362006.2936,5.88877328,-0.541092282,-0.76086752
362006.3538,-1.291824341,-3.145080566,1.258056641,362006.3286,7.868463371,-1.22126682,-1.211445082
362006.3839,0.030670166,-4.0806427,-1.949645996,362006.3638,6.616591238,2.747325236,-0.204205067
362006.4139,0.265777588,-2.993087769,-2.033584595,362006.3989,4.440797682,-1.108140264,-2.164859149
362006.444,-1.074234009,-2.121490479,-2.675430298,362006.434,1.483154891,-0.805066407,-4.05636159
362006.4741,-1.387496948,-0.353866577,-1.910400391,362006.4691,-2.158203909,1.151527952,-3.189412374
362006.5042,-1.145004272,0.859680176,-0.656463623,362006.4691,-2.158203909,1.151527952,-3.189412374
362006.5343,-0.986175537,1.248123169,0.456726074,362006.5042,-4.61520171,1.567248996,-1.810635288
362006.5644,-0.41645813,1.029846191,1.162704468,362006.5393,-5.223118296,-0.629217348,0.284094041
362006.5945,-0.380432129,0.538421631,1.576965332,362006.5745,-4.12398431,-3.736736986,1.730779604
362006.6246,-0.262435913,-0.366622925,1.341247559,362006.6095,-1.964270388,-3.18400376,3.880472051
362006.6547,0.896514893,-1.203216553,1.084487915,362006.6447,-0.820403285,-1.689772516,4.474518095
362006.6848,2.002243042,-0.40977478,0.887756348,362006.6798,-0.323425468,0.992985711,-0.100586529
362006.7149,0.282073975,-4.674819946,1.137954712,362006.7149,-6.876703247,0.116037657,2.026083955
362006.745,-0.91242981,-0.484664917,-1.46182251,362006.7149,-6.876703247,0.116037657,2.026083955
362006.7751,0.66696167,0.010162354,-1.206604004,362006.75,-3.502599053,1.673316045,-0.841931481
362006.8052,-0.06867981,-0.268096924,-0.928329468,362006.7851,-0.180071768,0.102614793,0.03459606
362006.8353,-0.156341553,-0.311920166,-0.91317749,362006.8202,0.94297634,-0.452407952,0.308026272
362006.8654,-0.225448608,-0.243392944,-1.034606934,362006.8553,2.452344726,-0.67251582,0.01037461
362006.8954,-0.343963623,-0.513183594,-1.326126099,362006.8904,5.234247647,-1.00769222,-0.420988777
362006.9255,-0.677230835,-0.852325439,-0.963348389,362006.9255,7.066226573,-0.446862452,-1.529774591
362006.9556,-0.748291016,-2.966873169,1.668624878,362006.9255,7.066226573,-0.446862452,-1.529774591
362006.9857,-0.168731689,-3.9815979,-1.646438599,362006.9606,7.543067697,-0.987676966,-0.138456147
362007.0158,0.250640869,-3.095321655,-1.897994995,362006.9958,4.280565399,0.623041477,-2.462778192
362007.0459,-1.160339355,-2.576263428,-2.671203613,362007.0309,3.019470206,-1.247184704,-4.223385466
362007.076,-1.422088623,-0.628677368,-1.916122437,362007.066,-0.358293171,1.339652853,-3.407098895
362007.1061,-1.414169312,0.297225952,-1.26499939,362007.1011,-3.474813228,2.19731749,-1.757117735
362007.1362,-1.239196777,1.242248535,0.168136597,362007.1362,-4.965620446,1.273471968,-0.0099011
362007.1663,-0.750213623,1.208099365,0.808288574,362007.1362,-4.965620446,1.273471968,-0.0099011
362007.1964,-0.197601318,0.666717529,1.075439453,362007.1713,-4.783193379,-1.750552776,1.477284219
362007.2265,-0.410354614,-0.097686768,0.989517212,362007.2064,-3.802894967,-3.726679558,2.045260846
362007.2566,0.221786499,-0.842727661,1.51171875,362007.2415,-2.422337824,-2.229216567,3.897622009
362007.2867,1.471710205,-1.314575195,1.429458618,362007.2767,-0.162018731,-0.682792692,2.668581422
362007.3168,1.625701904,-2.004699707,0.174591064,362007.3117,-1.892818842,2.757822618,-1.818376032
362007.3469,0.757324219,-0.222946167,-1.102920532,362007.3469,-5.864895911,1.241819766,1.199935166
362007.377,-0.720657349,0.173049927,-1.356414795,362007.3469,-5.864895911,1.241819766,1.199935166
362007.4071,0.326049805,-0.277191162,-1.139251709,362007.382,-2.295952188,1.119254701,-0.947849925
362007.4372,-0.163406372,-0.412811279,-0.932418823,362007.4171,0.083534841,-0.080169937,0.115684788
362007.4672,-0.176361084,-0.374191284,-0.923706055,362007.4522,1.072239788,-0.2895695,0.173566464
362007.4973,-0.209320068,-0.280319214,-1.055679321,362007.4873,2.629080085,-0.50348605,-0.054325823
362007.5274,-0.490844727,-0.475845337,-1.238235474,362007.5224,5.007483741,-0.477111168,-0.851056802
362007.5575,-0.344039917,-0.864486694,-0.960113525,362007.5224,5.007483741,-0.477111168,-0.851056802
362007.5876,-1.296615601,-2.524185181,1.323516846,362007.5575,6.393066268,-0.873207112,-1.382759843
362007.6177,0.365127563,-3.193649292,-1.53968811,362007.5926,6.38258886,0.551988872,0.971074554
362007.6478,0.983551025,-2.271011353,-1.233016968,362007.6277,3.810291631,0.075261998,-0.607642281
362007.6779,-0.406936646,-3.054901123,-2.359527588,362007.6628,4.46825434,-1.083164341,-4.504549497
362007.708,-1.351486206,-1.703979492,-2.405395508,362007.698,0.856512554,-0.088250234,-3.801017971
362007.7381,-1.477172852,-0.218414307,-1.559997559,362007.7331,-1.970225749,1.973287319,-2.354130008
362007.7682,-1.05255127,0.600662231,-0.486465454,362007.7682,-4.310377357,0.543305369,-0.352318369
362007.7983,-0.757629395,0.911590576,0.491592407,362007.7682,-4.310377357,0.543305369,-0.352318369
362007.8284,-0.236297607,0.772628784,0.990844727,362007.8033,-4.736832006,-1.834398941,1.447704222
362007.8585,0.352523804,0.179824829,0.648239136,362007.8384,-3.950208255,-2.941084054,1.773384855
362007.8886,0.186691284,-0.375564575,0.620040894,362007.8735,-3.647799922,-3.616956788,1.900266105
362007.9187,0.748565674,-0.846725464,1.254013062,362007.9086,-2.730882081,-2.342293322,1.732857669
362007.9488,1.045074463,-1.347320557,1.182556152,362007.9437,-0.67943844,-1.636840858,0.567210968
362007.9788,0.520385742,-2.606323242,0.143615723,362007.9788,-4.960198783,3.552963158,-1.103229395
362008.0089,0.712646484,-0.576797485,-1.057952881,362007.9788,-4.960198783,3.552963158,-1.103229395
362008.039,-0.53036499,0.309341431,-1.336349487,362008.0139,-4.848743893,0.925812799,1.076719225
362008.0691,0.282241821,-0.262359619,-1.091522217,362008.0491,-1.457411178,0.92622772,-0.838270433
362008.0992,-0.09324646,-0.476852417,-0.912063599,362008.0842,0.002789928,-0.044404216,-0.065076205
362008.1293,-0.170593262,-0.473526001,-0.905517578,362008.1193,0.767182142,-0.330543299,0.102009989
362008.1594,-0.216079712,-0.367202759,-0.916503906,362008.1544,1.631385372,-0.236295626,0.04550783
362008.1895,-0.319381714,-0.287796021,-1.099456787,362008.1895,3.779926801,-0.163176141,-0.63957518
362008.2196,-0.479278564,-0.358383179,-1.190155029,362008.1895,3.779926801,-0.163176141,-0.63957518
362008.2497,0.208526611,-0.863082886,-1.12197876,362008.2246,6.27461419,-0.815711595,-2.12837038
362008.2798,-0.087173462,-2.214996338,1.135879517,362008.2597,6.020307339,-6.452061678,-1.696491405
362008.3099,-0.508117676,-1.700408936,-0.191940308,362008.2948,2.0465365,-1.837915912,-0.560932299
362008.34,1.419662476,-0.773757935,-0.210372925,362008.33,1.772473255,2.185246712,-3.313571607
362008.3701,-0.120437622,-1.779098511,-0.601364136,362008.365,3.476187419,-0.906269991,-4.895946826
362008.4002,-1.226196289,-2.281845093,-1.304626465,362008.4002,2.718041383,0.454117435,-3.91472483
362008.4303,-1.422592163,-1.475494385,-1.311569214,362008.4002,2.718041383,0.454117435,-3.91472483
362008.4604,-1.131851196,-0.629806519,-1.337585449,362008.4352,1.073160176,1.634173702,-2.023278581
362008.4905,-0.885910034,-0.226211548,-1.226867676,362008.4704,-0.75524106,0.350242435,0.468014343
362008.5205,-0.429000854,-0.045135498,-0.868667603,362008.5055,-2.866532321,-1.035820793,2.098552563
362008.5506,-0.032577515,0.162307739,-0.516540527,362008.5406,-3.355255405,-1.871102627,2.369861034
362008.5807,0.094329834,-0.078826904,-0.797149658,362008.5757,-3.579213404,-2.327503989,2.38312837
362008.6108,0.089080811,-0.346191406,-0.922164917,362008.6108,-4.641976066,-2.61939763,2.914080666
362008.6409,0.166107178,-0.457794189,-0.836380005,362008.6108,-4.641976066,-2.61939763,2.914080666
362008.671,0.471359253,-0.608413696,-0.991149902,362008.6459,-5.160731617,-1.873948481,2.581656376
362008.7011,0.299453735,-1.010284424,-1.450210571,362008.681,-5.703068927,-2.188673934,1.717482973
362008.7312,0.290008545,-1.278015137,-1.74520874,362008.7161,-6.5815222,-2.372987851,0.997091241
362008.7613,1.389968872,-1.814498901,-1.812271118,362008.7513,-6.837342258,-2.609907722,-1.066296411
362008.7914,0.869293213,-3.109848022,-1.409194946,362008.7864,-6.641988207,-2.687570293,-4.343931855
362008.8215,1.40675354,-3.009399414,2.548904419,362008.7864,-6.641988207,-2.687570293,-4.343931855
362008.8516,-0.117248535,0.328872681,-2.168045044,362008.8215,-1.002664171,-1.238495075,-3.255618026
362008.8817,1.038314819,-4.388626099,-5.038406372,362008.8566,3.656968653,5.966061411,-3.302227873
362008.9118,-0.665664673,-0.613754272,-1.134002686,362008.8917,0.984980249,1.309324241,-0.251784571
362008.9419,-0.195785522,-0.682418823,-1.184143066,362008.9268,0.362537184,0.683096559,-0.361523053
362008.972,-0.06880188,-0.409133911,-0.941818237,362008.9619,0.099787048,0.079320655,-0.053013417
362009.0021,-0.150772095,-0.418441772,-0.900604248,362008.997,0.173614667,-0.160757458,0.098298874
362009.0321,-0.209732056,-0.415496826,-0.881607056,362009.0321,0.16429893,-0.108409565,0.055752478
362009.0622,-0.220458984,-0.389724731,-0.880386353,362009.0321,0.16429893,-0.108409565,0.055752478
362009.0923,-0.19178772,-0.39012146,-0.88293457,362009.0672,0.266565914,-0.109886288,-0.021975873
362009.1224,-0.235488892,-0.441375732,-0.861984253,362009.1024,0.36674924,-0.147569751,-0.099835784
362009.1525,-0.223953247,-0.412109375,-0.871887207,362009.1374,0.312096381,-0.003376089,-0.227799609
362009.1826,-0.19354248,-0.438720703,-0.867858887,362009.1726,0.424476452,-0.20753029,-0.445561498
362009.2127,-0.181884766,-0.461257935,-0.8644104,362009.2077,0.636252088,-0.67775985,-0.853718099
362009.2428,-0.189987183,-0.513595581,-0.841339111,362009.2428,0.68891237,-0.675898833,-0.765809282
362009.2729,-0.160324097,-0.535446167,-0.824935913,362009.2428,0.68891237,-0.675898833,-0.765809282
362009.303,-0.150085449,-0.546279907,-0.821884155,362009.2779,0.615319641,-0.350117266,-0.12654436
362009.3331,-0.240585327,-0.519836426,-0.814346313,362009.313,0.678193679,-0.351731941,0.252239971
362009.3632,-0.211624146,-0.498748779,-0.850479126,362009.3481,0.909652205,-0.459494358,0.210722621
362009.3933,-0.230743408,-0.463516235,-0.922576904,362009.3833,1.726008018,-0.786144914,0.19397773
362009.4234,-0.367172241,-0.433181763,-1.143585205,362009.4183,3.31308052,-1.486731783,-0.224650155
362009.4535,-0.456619263,-0.419433594,-1.3515625,362009.4535,6.218007103,-3.269355943,-1.6144735
362009.4836,0.203033447,-0.614822388,-1.49369812,362009.4535,6.218007103,-3.269355943,-1.6144735
362009.5137,-0.184249878,-1.582046509,-0.589279175,362009.4885,7.587700146,-9.029515853,-3.539728046
362009.5438,-0.698822021,-2.241653442,-2.208023071,362009.5237,3.683262042,-2.771451345,-7.758130205
362009.5738,-1.457366943,-1.362167358,-1.018600464,362009.5588,-0.903078458,-4.956990739,-2.665047407
362009.6039,-0.908203125,-0.474411011,0.116882324,362009.5939,-1.171736019,-3.418279645,2.102049027
362009.634,0.327774048,-0.7865448,-0.676055908,362009.629,-0.79495039,-2.088553991,3.257224711
362009.6641,1.510253906,-1.281097412,-1.386108398,362009.6641,-3.480635964,-4.694593205,1.796552492
362009.6942,1.254699707,-0.745010376,-0.444946289,362009.6641,-3.480635964,-4.694593205,1.796552492
362009.7243,1.088180542,-0.529647827,-0.705581665,362009.6992,-3.350308317,-3.811759032,0.714193225
362009.7544,1.020385742,-0.579421997,-1.148803711,362009.7343,-3.730197061,-2.421253119,0.051820587
362009.7845,0.646347046,-0.444381714,-0.821029663,362009.7694,-4.836901881,-1.671527732,-0.40617734
362009.8146,0.333648682,-0.610443115,-0.914642334,362009.8046,-4.973368647,-0.621281128,0.329396009
362009.8447,0.541290283,-0.753143311,-0.997528076,362009.8397,-4.951185048,0.087695232,0.599116969
362009.8748,0.744812012,-0.899261475,-0.821380615,362009.8397,-4.951185048,0.087695232,0.599116969
362009.9049,0.290054321,-1.232192993,-0.338317871,362009.8748,-4.901190057,0.203182946,-1.053059435
362009.935,0.03213501,-1.433349609,0.556503296,362009.9099,-4.002886114,-0.158427459,-1.734730137
362009.965,-0.061721802,-1.849349976,1.160049438,362009.945,-1.19908402,0.364289012,-1.414493805
362009.9952,-1.544815063,-6.892623901,-3.096282959,362009.9801,1.848838334,2.031412142,-2.03401405
362010.0253,-0.129898071,-0.073455811,-1.29699707,362010.0152,-0.150483515,-1.015939763,-1.405304035
362010.0553,0.074645996,-0.797561646,-0.89642334,362010.0503,0.105306183,-0.011146661,-0.057487794
362010.0854,-0.257049561,-0.469085693,-0.86340332,362010.0854,-0.663954822,0.209667743,-0.148134874
362010.1155,-0.083679199,-0.260925293,-0.966659546,362010.0854,-0.663954822,0.209667743,-0.148134874
362010.1456,-0.200790405,-0.499359131,-0.871643066,362010.1205,0.186570413,-0.095093493,-0.045154962
362010.1757,-0.201828003,-0.429138184,-0.870101929,362010.1557,-0.085570562,0.021050158,0.001277785
362010.2058,-0.126235962,-0.348190308,-0.910858154,362010.1907,0.039140479,0.022829149,-0.076200496
362010.2359,-0.14390564,-0.366699219,-0.918960571,362010.2259,0.402887271,-0.156104383,-0.074977039
362010.266,-0.122970581,-0.403656006,-0.919052124,362010.261,0.837619024,-0.412460802,0.129144671
362010.2961,-0.118103027,-0.354782104,-0.953399658,362010.2961,1.739451123,-0.765034835,0.241050433
362010.3262,-0.077758789,-0.266647339,-1.116317749,362010.2961,1.739451123,-0.765034835,0.241050433
362010.3563,-0.219436646,-0.469177246,-1.233169556,362010.3312,3.712370926,-1.484955188,0.311122196
362010.3864,-0.718093872,-0.963806152,-0.886993408,362010.3663,5.694563323,-1.519193053,-0.28553055
362010.4165,-0.174697876,-2.464447021,1.332702637,362010.4014,6.8955792,-1.85183732,-0.158645838
362010.4466,0.160064697,-3.376907349,-1.573486328,362010.4366,3.138633349,0.613103891,-1.259734318
362010.4767,-0.29586792,-2.627548218,-1.296905518,362010.4716,3.871689212,-1.36878171,-4.575704368
362010.5068,-1.427810669,-2.776123047,-2.505004883,362010.5068,3.065209998,-0.570139646,-5.969773325
362010.5369,-2.475082397,-1.714096069,-2.824371338,362010.5068,3.065209998,-0.570139646,-5.969773325
362010.567,-1.990829468,0.175888062,-1.576339722,362010.5419,-0.513768515,2.322000833,-3.6358639
362010.5971,-1.394607544,1.034744263,-0.670623779,362010.577,-3.114417225,2.897227916,-1.171724833
362010.6271,-0.943328857,1.541641235,0.497451782,362010.6121,-4.83318837,-0.72278405,1.162445847
362010.6572,-0.305526733,1.039154053,0.357162476,362010.6472,-4.423802453,-2.543034948,2.655693054
362010.6873,0.418075562,0.00692749,0.518737793,362010.6823,-4.365295467,-3.949584809,2.918353974
362010.7174,0.649551392,-0.682571411,1.396606445,362010.7174,-2.00289155,-2.403172119,4.004903193
362010.7475,1.369155884,-1.764404297,1.592498779,362010.7174,-2.00289155,-2.403172119,4.004903193
362010.7776,2.352798462,-0.85697937,1.906356812,362010.7525,-0.356003385,0.699702167,1.783435092
362010.8077,1.623855591,-0.95463562,0.177780151,362010.7876,-6.835351279,3.697314212,1.715668295
362010.8378,0.122467041,0.312408447,-1.544525146,362010.8227,-4.420955001,1.583317445,-0.590014817
362010.8679,-0.049850464,-0.266998291,-1.053573608,362010.8579,-0.108524347,0.031377897,0.055384163
362010.898,-0.084655762,-0.474136353,-0.927566528,362010.893,0.42883871,-0.155935006,0.129803537
362010.9281,-0.202301025,-0.352172852,-0.940979004,362010.9281,1.377966952,-0.298324376,0.178942854
362010.9582,-0.26133728,-0.265472412,-1.064285278,362010.9281,1.377966952,-0.298324376,0.178942854
362010.9883,-0.366836548,-0.418197632,-1.275161743,362010.9632,3.451017351,-0.540160708,-0.144694069
362011.0184,-0.684402466,-0.789962769,-0.816864014,362010.9983,5.945771852,-0.64731406,-0.780815129
362011.0484,-0.565490723,-2.852432251,1.145004272,362011.0334,7.730980343,-2.047082714,0.41847928
362011.0786,0.0859375,-3.565948486,-1.680450439,362011.0685,4.404872171,3.029658928,-0.87142306
362011.1087,0.28717041,-2.635818481,-1.616500854,362011.1036,3.713350436,-1.187744546,-3.999560092
362011.1387,-1.158737183,-2.553237915,-2.227767944,362011.1387,2.108407058,-1.028465941,-5.306114646
362011.1688,-2.100479126,-1.252838135,-2.096603394,362011.1387,2.108407058,-1.028465941,-5.306114646
362011.1989,-1.693710327,0.314315796,-1.15411377,362011.1738,-1.044004954,2.043880263,-3.001179083
362011.229,-0.885025024,1.079421997,-0.117645264,362011.209,-3.356131052,1.977862097,-0.535886601
362011.2591,-0.553695679,1.136917114,0.617263794,362011.244,-3.835030267,-1.339352448,1.542995322
362011.2892,-0.338272095,0.660140991,0.57170105,362011.2792,-3.352013272,-2.363484894,2.921205154
362011.3193,0.489318848,-0.073974609,0.262069702,362011.3143,-3.929221481,-3.26124715,3.293629058
362011.3494,0.55065918,-0.380584717,0.705383301,362011.3494,-3.409802803,-2.907006245,2.541895381
362011.3795,0.483886719,-1.390258789,0.795425415,362011.3494,-3.409802803,-2.907006245,2.541895381
362011.4096,1.073226929,-1.247039795,1.350006104,362011.3845,-2.331824968,-1.388519994,2.020132855
362011.4397,0.351272583,-3.798568726,-1.264709473,362011.4196,0.741200342,-0.955830886,0.59618909
362011.4698,-0.019775391,-0.829071045,-1.405883789,362011.4547,-5.529010044,0.521576371,0.822175885
362011.4999,-0.748474121,0.227340698,-1.126754761,362011.4898,-2.951442952,1.747052317,-0.798530211
362011.53,0.112533569,-0.429367065,-0.980773926,362011.5249,-1.261016896,0.609457225,-0.157580041
362011.56,-0.061416626,-0.371185303,-0.983337402,362011.56,-0.367174281,0.224685042,-0.221601102
362011.5901,-0.164733887,-0.462753296,-0.921096802,362011.56,-0.367174281,0.224685042,-0.221601102
362011.6203,-0.122924805,-0.41305542,-0.946380615,362011.5951,-0.027164243,0.002387258,-0.070581226
362011.6503,-0.115478516,-0.303405762,-0.983520508,362011.6303,0.574306428,-0.339836399,0.152108044
362011.6804,-0.109924316,-0.205352783,-1.001876831,362011.6654,1.881235689,-0.817065013,0.294601809
362011.7105,-0.150787354,-0.181304932,-1.194824219,362011.7005,4.119104334,-1.56825434,0.153326972
362011.7406,-1.120635986,-0.686187744,-0.984680176,362011.7356,6.341890432,-0.51479543,-1.101035483
362011.7707,-0.337493896,-1.487014771,-0.047515869,362011.7707,6.980989972,-0.066146796,-1.031063855
362011.8008,-1.958786011,-3.381820679,-0.614044189,362011.7707,6.980989972,-0.066146796,-1.031063855
362011.8309,0.971893311,-2.086685181,-0.534744263,362011.8058,4.420966187,3.079132738,1.962107103
362011.861,0.056243896,-2.997451782,-1.696334839,362011.8409,6.333952082,0.352378823,-1.429754783
362011.8911,-0.951263428,-2.977935791,-2.655792236,362011.876,3.979390642,-0.71716984,-4.05813419
362011.9212,-1.263046265,-1.020462036,-1.668029785,362011.9111,0.769069257,-0.904721895,-3.217538817
362011.9513,-1.276031494,0.009094238,-1.211502075,362011.9462,-2.166431479,2.661254,-2.04846596
362011.9814,-0.732315063,0.843139648,-0.30291748,362011.9814,-4.593104397,2.290870078,-0.584396879
362012.0115,-0.541122437,1.139877319,0.651153564,362011.9814,-4.593104397,2.290870078,-0.584396879
362012.0415,-0.290267944,0.888702393,0.590286255,362012.0164,-5.038941532,0.230189796,0.585826198
362012.0716,-0.591751099,0.265563965,0.313690186,362012.0516,-4.658188326,-3.22225208,1.370865101
362012.1017,-0.38911438,-0.405670166,1.100082397,362012.0867,-4.402796504,-2.485242222,3.2813154
362012.1318,0.777740479,-1.262573242,1.316452026,362012.1218,-1.489327566,-2.517116265,3.860940427
362012.162,1.668670654,-1.280181885,1.179611206,362012.1569,-0.300246379,-1.638708799,0.961096754
362012.1921,1.036437988,-2.404724121,0.754226685,362012.1921,-5.889719235,0.654666515,0.609953638
362012.2221,-0.772186279,-0.916748047,-1.562515259,362012.1921,-5.889719235,0.654666515,0.609953638
362012.2522,0.25050354,-0.325027466,-1.113555908,362012.2271,-2.651572078,1.224910024,-0.533812265
362012.2823,-0.190368652,-0.332717896,-0.931838989,362012.2623,-0.706406142,0.275217725,-0.074898476
362012.3124,-0.127075195,-0.403900146,-0.919372559,362012.2973,0.296863632,-0.127221602,0.059244948
362012.3425,-0.160339355,-0.353317261,-0.93737793,362012.3325,1.163933489,-0.372558926,0.214771958
362012.3726,-0.218399048,-0.243118286,-1.064956665,362012.3676,2.896163717,-0.546529125,-0.026033998
362012.4027,-0.426696777,-0.421066284,-1.26361084,362012.4027,5.389673456,-0.580196541,-0.892011692
362012.4328,-0.424728394,-0.877761841,-0.944839478,362012.4027,5.389673456,-0.580196541,-0.892011692
362012.4629,-1.014984131,-2.532897949,1.393157959,362012.4378,6.729373979,-1.483758363,-0.638616442
362012.493,0.058731079,-3.425521851,-1.434371948,362012.4729,6.059657142,1.961370739,0.628903361
362012.5231,0.535552979,-2.502059937,-1.244110107,362012.508,4.367343971,-0.508318623,-2.060519161
362012.5532,-1.070526123,-3.103317261,-2.531402588,362012.5431,3.384584798,-1.54137319,-5.067132158
362012.5833,-1.790344238,-1.405899048,-2.224914551,362012.5782,-0.545028168,-0.191237337,-3.789703265
362012.6133,-1.579055786,0.148147583,-1.359390259,362012.6133,-3.052433216,2.330282998,-2.381678811
362012.6434,-0.927520752,0.965667725,-0.369613647,362012.6133,-3.052433216,2.330282998,-2.381678811
362012.6735,-0.77154541,1.121673584,0.604690552,362012.6484,-4.52412959,0.100025934,-0.406004501
362012.7036,-0.368347168,0.663574219,0.594467163,362012.6836,-3.98835644,-2.254277712,1.742030394
362012.7337,-0.146575928,-0.071716309,0.552062988,362012.7187,-3.825201604,-3.268639552,2.666301756
362012.7638,0.355361938,-0.542617798,1.240310669,362012.7538,-2.838909482,-3.078265879,3.519940493
362012.7939,0.815795898,-1.530899048,1.150390625,362012.7889,-1.157299022,-1.539632282,2.92162114
362012.824,1.599624634,-1.208892822,0.936752319,362012.7889,-1.157299022,-1.539632282,2.92162114
362012.8541,0.446655273,-3.300735474,0.381744385,362012.824,-0.434685414,-0.048316666,-0.396761468
362012.8842,-0.566467285,-1.175979614,-1.467422485,362012.8591,-5.943557167,0.579667904,0.902057935
362012.9143,-0.142440796,-0.19859314,-1.125350952,362012.8942,-2.924714934,1.059774329,-0.448829729
362012.9444,-0.088317871,-0.248748779,-0.991455078,362012.9293,-0.94282454,0.36292281,-0.072904035
362012.9745,-0.112579346,-0.322006226,-0.949264526,362012.9645,0.420796496,-0.092820485,0.062805594
362013.0046,-0.25112915,-0.202194214,-0.975784302,362012.9995,1.939681955,-0.07219377,-0.025255023
362013.0347,-0.431793213,-0.271972656,-1.195480347,362013.0347,4.507065652,0.292982874,-1.205577872
362013.0648,-0.193191528,-0.31602478,-1.365539551,362013.0347,4.507065652,0.292982874,-1.205577872
362013.0949,0.000808716,-1.975158691,0.059143066,362013.0697,7.308963054,-2.189772222,-2.080970374
362013.1249,-1.024032593,-3.471282959,-0.636444092,362013.1049,8.101451085,-2.016591916,0.944443742
362013.1551,1.430603027,-2.275192261,-1.197601318,362013.14,3.945734145,2.475921424,0.223321237
362013.1851,0.332824707,-2.640686035,-1.156097412,362013.1751,4.541645733,-0.448131182,-4.329299117
362013.2152,-1.044158936,-3.310638428,-2.340301514,362013.2102,2.837851674,-1.095133386,-4.737191532
362013.2454,-1.829223633,-1.652114868,-2.12739563,362013.2102,2.837851674,-1.095133386,-4.737191532
362013.2754,-1.509750366,-0.277572632,-1.39793396,362013.2454,-0.911606433,2.179431967,-2.767157531
362013.3055,-1.155838013,0.688690186,-0.278564453,362013.2804,-3.523684897,2.470967146,-0.886615329
362013.3356,-0.894729614,0.967895508,0.686157227,362013.3155,-5.074742407,0.267168587,0.400224376
362013.3657,-0.471435547,0.788223267,0.942321777,362013.3506,-4.230469741,-2.428342187,1.706960025
362013.3958,-0.033493042,0.014923096,0.356033325,362013.3858,-4.105047637,-4.155730256,2.308075963
362013.4259,0.541152954,-0.01399231,0.985168457,362013.4209,-3.214872194,-3.732934258,1.688331746
362013.456,0.767578125,-0.651763916,0.825759888,362013.456,-1.98131675,-4.804247798,2.002926438
362013.4861,0.516082764,-1.028640747,0.833328247,362013.456,-1.98131675,-4.804247798,2.002926438
362013.5162,1.912841797,-1.569473267,0.134063721,362013.4911,-1.363697735,-1.571362781,1.628395441
362013.5463,0.715332031,-0.337432861,-1.598922729,362013.5262,-6.79106078,5.219717972,-0.245467819
362013.5764,0.735534668,0.492385864,-1.540908813,362013.5613,-3.799424336,2.185287459,-1.205703307
362013.6065,-0.19102478,-0.218460083,-0.966278076,362013.5964,0.166310682,0.104701646,-0.202406102
362013.6366,-0.089508057,-0.519577026,-0.88923645,362013.6315,0.426090328,-0.205783789,0.087019055
362013.6666,-0.148498535,-0.441070557,-0.920394897,362013.6666,0.837345784,-0.294326172,0.140149385
362013.6967,-0.202102661,-0.254928589,-0.958786011,362013.6666,0.837345784,-0.294326172,0.140149385
362013.7268,-0.352111816,-0.279586792,-1.081344604,362013.7017,2.30137545,-0.262809791,-0.03154461
362013.7569,-0.4478302,-0.430038452,-1.09362793,362013.7369,4.449712347,-0.129003523,-0.941186163
362013.787,-0.070617676,-0.820129395,-0.876846313,362013.772,5.779219888,-1.01023181,-1.814725371
362013.8171,0.181472778,-1.192459106,-0.397872925,362013.8071,4.957448803,-4.279892152,-1.439295291
362013.8472,0.087783813,-2.373062134,0.367340088,362013.8422,3.123999811,-3.409527432,-1.944117716
362013.8773,0.66368103,-1.379364014,-0.205123901,362013.8773,1.097756599,0.270147333,-3.343614728
362013.9074,-0.179382324,-1.671615601,-0.358505249,362013.8773,1.097756599,0.270147333,-3.343614728
362013.9375,-1.163635254,-2.103012085,-0.88861084,362013.9124,2.788789856,2.122095706,-4.445752759
362013.9676,-1.101074219,-1.671234131,-1.058914185,362013.9475,3.854527802,1.923084868,-2.259978475
362013.9977,-0.568008423,-1.098327637,-1.189529419,362013.9826,3.095935952,1.902812886,-1.122094962
362014.0278,-0.398162842,-0.517929077,-1.017471313,362014.0178,1.00565064,-0.187449523,-0.52129381
362014.0579,-0.417572021,-0.211044312,-0.76953125,362014.0528,-0.667417464,-1.521474317,0.044715806
362014.088,-0.649993896,-0.258239746,-0.74168396,362014.088,-2.23402091,-1.153378583,1.212401157
362014.1181,-0.311767578,-0.063186646,-0.614700317,362014.088,-2.23402091,-1.153378583,1.212401157
362014.1482,0.00920105,0.017715454,-0.606658936,362014.123,-2.640572158,-1.48741222,2.486245701
362014.1783,0.087646484,-0.671844482,-1.294692993,362014.1582,-2.909530123,-1.849829563,3.088324105
362014.2084,0.373291016,-0.688247681,-1.078338623,362014.1933,-4.982852164,-1.350267414,3.399954433
362014.2385,0.684677124,-0.741012573,-0.965057373,362014.2284,-5.459162786,-1.549918475,2.782876839
362014.2685,0.631881714,-0.985290527,-1.146820068,362014.2635,-5.735843385,-1.727121486,1.36384128
362014.2986,0.55065918,-1.374328613,-1.500900269,362014.2986,-6.604309804,-2.269192213,0.424128111
362014.3288,0.475387573,-1.369247437,-1.383605957,362014.2986,-6.604309804,-2.269192213,0.424128111
362014.3588,0.800003052,-1.429016113,-1.547454834,362014.3337,-6.509671179,-2.056862108,-0.740520171
362014.3889,1.344543457,-1.594955444,-1.595932007,362014.3689,-5.973035165,-2.569103567,-2.430921192
362014.419,1.629470825,-1.960601807,-1.206604004,362014.404,-5.675428511,-1.269290539,-4.23025003
362014.4491,1.002044678,-2.469345093,1.576171875,362014.4391,-3.690690664,-1.531055838,-6.021557427
362014.4792,-0.649276733,-1.959594727,0.654052734,362014.4742,1.450032091,1.951485884,-2.2547427
362014.5093,-0.865875244,1.419296265,-1.133743286,362014.4742,1.450032091,1.951485884,-2.2547427
362014.5394,-2.464355469,-3.716918945,-2.938339233,362014.5093,2.470204416,4.62867837,-5.56849194
362014.5695,0.699081421,-0.512390137,-1.517868042,362014.5444,-0.037994787,2.862173526,-0.048221059
362014.5996,-0.329376221,-0.496032715,-0.929534912,362014.5795,0.380245075,0.122351479,0.019351061
362014.6297,-0.187789917,-0.441009521,-0.909698486,362014.6146,0.165641163,0.346233845,-0.167600717
362014.6598,-0.039550781,-0.429397583,-0.952896118,362014.6497,0.05949928,0.189139831,-0.108499313
362014.6899,-0.113220215,-0.405456543,-0.904693604,362014.6848,0.138702223,-0.083940441,0.044901162
362014.72,-0.154769897,-0.412490845,-0.891830444,362014.72,0.120455841,-0.11812744,0.058449195
362014.7501,-0.171936035,-0.408905029,-0.885971069,362014.72,0.120455841,-0.11812744,0.058449195
362014.7801,-0.177307129,-0.397583008,-0.878738403,362014.7551,0.104655839,-0.076489981,0.025387116
362014.8102,-0.182952881,-0.413421631,-0.877883911,362014.7902,0.128593929,-0.017597103,-0.030630081
362014.8403,-0.166305542,-0.392990112,-0.885986328,362014.8253,0.135531996,0.042369295,-0.098542287
362014.8704,-0.139801025,-0.385192871,-0.891052246,362014.8604,0.267697224,-0.0581416,-0.156012238
362014.9005,-0.1456604,-0.412139893,-0.891860962,362014.8955,0.45732761,-0.240681053,-0.170509954
362014.9306,-0.136703491,-0.431442261,-0.895553589,362014.9306,0.712915973,-0.245817758,-0.059147743
362014.9607,-0.128097534,-0.424758911,-0.898986816,362014.9306,0.712915973,-0.245817758,-0.059147743
362014.9908,-0.131912231,-0.43057251,-0.897186279,362014.9657,1.100081539,-0.496693924,0.083769732
362015.0209,-0.177627563,-0.42755127,-0.922653198,362015.0008,1.735349322,-0.702085696,0.211373232
362015.051,-0.235687256,-0.462249756,-0.962600708,362015.0359,2.775455408,-0.992785442,0.154527259
362015.0811,-0.4715271,-0.486633301,-1.20904541,362015.0711,4.589523511,-1.271149958,-0.252940915
362015.1112,-0.373474121,-0.461837769,-1.524230957,362015.1061,8.545270076,-3.055774951,-1.274708207
362015.1413,-0.104980469,-0.357025146,-1.074813843,362015.1061,8.545270076,-3.055774951,-1.274708207
362015.1714,-3.454650879,-6.085128784,-4.250015259,362015.1413,12.52440559,-9.585686154,-2.573628011
362015.2015,-0.583511353,-1.476745605,-1.59753418,362015.1764,1.465851268,-1.592581251,0.129112979
