accelerometerTimestamp_sinceReboot,accelerometerAccelerationX,accelerometerAccelerationY,accelerometerAccelerationZ,gyroTimestamp_sinceReboot,gyroRotationX,gyroRotationY,gyroRotationZ
361073.0079,-0.050628662,-0.376586914,-0.910842896,361072.9799,-0.013821806,0.065001637,-0.019123893
361073.038,-0.026779175,-0.384628296,-0.921279907,361073.015,-0.004197675,0.043718186,-0.015889751
361073.0682,-0.021377563,-0.380645752,-0.917907715,361073.0501,2.72E-05,0.052227518,-0.011558385
361073.0983,-0.024551392,-0.374771118,-0.9140625,361073.0852,-0.001054612,0.054348993,-0.010498447
361073.1283,-0.02116394,-0.376235962,-0.914764404,361073.1203,0.003286873,0.061854313,-0.018950255
361073.1584,-0.021621704,-0.378097534,-0.917114258,361073.1554,0.002181129,0.060766412,-0.01470491
361073.1885,-0.019287109,-0.378860474,-0.9168396,361073.1554,0.002181129,0.060766412,-0.01470491
361073.2186,-0.020339966,-0.369277954,-0.912643433,361073.1905,0.002150769,0.049029062,-0.009415073
361073.2487,-0.01802063,-0.381256104,-0.916854858,361073.2256,0.021421403,0.049096973,-0.012403939
361073.2788,-0.00970459,-0.384033203,-0.924453735,361073.2608,0.009696037,0.045885733,-0.015734488
361073.3089,-0.016342163,-0.381912231,-0.918334961,361073.2958,0.003159042,0.019163841,0.002221875
361073.339,-0.034469604,-0.388427734,-0.917053223,361073.331,-0.027820979,0.049991528,-0.00547253
361073.3691,-0.013717651,-0.369781494,-0.912216187,361073.366,-0.020221382,0.074581826,-0.022358835
361073.3992,-0.004119873,-0.3722229,-0.918792725,361073.366,-0.020221382,0.074581826,-0.022358835
361073.4293,-0.02166748,-0.37387085,-0.917449951,361073.4012,-0.002211489,0.023398001,0.004307397
361073.4594,-0.027801514,-0.365066528,-0.911483765,361073.4363,-0.00330445,0.026579147,0.006435529
361073.4894,-0.028686523,-0.381439209,-0.919235229,361073.4714,0.019253057,0.037353764,-0.007137005
361073.5195,-0.018280029,-0.379089355,-0.921569824,361073.5065,0.008547149,0.035184885,-0.005127917
361073.5496,-0.009750366,-0.359054565,-0.915405273,361073.5416,0.008540758,0.045837263,-0.006160957
361073.5797,-0.030700684,-0.389038086,-0.922897339,361073.5767,-0.008558334,0.061776549,-0.00949124
361073.6098,-0.038040161,-0.390853882,-0.925598145,361073.5767,-0.008558334,0.061776549,-0.00949124
361073.6399,-0.033935547,-0.362716675,-0.910812378,361073.6118,-0.034054373,0.095888979,-0.033093771
361073.67,-0.067932129,-0.381240845,-0.93927002,361073.6469,0.028277977,0.150577791,-0.078061513
361073.7001,0.341201782,-0.253646851,-0.937347412,361073.682,0.102332498,0.291086703,-0.251523847
361073.7302,-0.694229126,-0.204421997,-0.980438232,361073.7171,0.837962572,-0.79750516,-1.982008373
361073.7603,-1.269561768,-0.04107666,-1.554290771,361073.7522,0.574025198,-1.240843185,-0.02529284
361073.7904,-0.7237854,0.592208862,-1.520202637,361073.7873,-0.771098586,-0.058669172,1.820373137
361073.8204,0.421676636,0.62677002,-1.266967773,361073.7873,-0.771098586,-0.058669172,1.820373137
361073.8505,0.073257446,-0.415161133,1.035385132,361073.8225,-1.819935579,-0.807128759,0.286967059
361073.8806,1.3515625,-5.912445068,-3.834533691,361073.8575,2.592349235,0.63116252,-0.672257759
361073.9107,-0.939987183,-0.368911743,-1.333435059,361073.8927,0.469866305,-0.477413171,0.137793553
361073.9408,-0.137756348,-0.407226563,-0.875579834,361073.9277,0.313369904,0.095776328,-0.029375199
361073.9709,0.061050415,-0.322891235,-0.940597534,361073.9629,0.242824365,0.045505167,-0.02282622
361074.001,-0.061279297,-0.388473511,-0.920227051,361073.998,0.305925304,-0.166355423,0.009163405
361074.0311,0.037033081,-0.363647461,-0.912033081,361073.998,0.305925304,-0.166355423,0.009163405
361074.0612,-0.064910889,-0.476150513,-0.890319824,361074.0331,0.49753069,-0.410274081,0.141487623
361074.0913,-0.11265564,-0.36265564,-0.910552979,361074.0682,0.433904043,-0.455494556,0.209902634
361074.1213,-0.168029785,-0.520599365,-0.842819214,361074.1033,0.613288715,-0.188660462,-0.046195192
361074.1514,-0.136856079,-0.500900269,-0.851913452,361074.1384,0.328017823,0.129804868,-0.236813344
361074.1816,-0.038543701,-0.460861206,-0.901107788,361074.1735,0.397427258,0.180037679,-0.235918788
361074.2117,-0.054519653,-0.319976807,-0.989730835,361074.2086,1.262630772,0.239592353,-0.160440542
361074.2417,-0.027328491,-0.325363159,-1.059051514,361074.2086,1.262630772,0.239592353,-0.160440542
361074.2718,0.079711914,-0.473449707,-1.196472168,361074.2437,3.007322996,0.111283915,-0.367956717
361074.3019,-0.142929077,-0.801971436,-1.178466797,361074.2788,5.262904325,-2.176039632,-0.562672675
361074.332,0.284667969,-5.150177002,-2.542449951,361074.314,5.494749542,-2.782221968,-3.057586965
361074.3621,-1.001144409,-2.324859619,-1.321914673,361074.349,0.728022488,-1.143974162,-2.182342269
361074.3922,-0.299667358,-1.919555664,-2.85206604,361074.3842,1.040986527,-0.298198408,-0.272012611
361074.4223,1.508651733,-0.434875488,-2.545120239,361074.4192,1.243825126,0.278252663,-2.944738444
361074.4524,-0.096694946,0.141494751,-2.31350708,361074.4192,1.243825126,0.278252663,-2.944738444
361074.4825,-0.917007446,0.956466675,-0.793792725,361074.4544,-0.30075451,1.255255413,-4.439900197
361074.5126,-0.835617065,0.999664307,0.010421753,361074.4895,-1.248978343,-0.222235467,-1.476444258
361074.5427,-0.391220093,0.794692993,0.027069092,361074.5246,-2.111550121,-1.083853034,0.541833706
361074.5727,-0.04524231,0.465621948,0.175415039,361074.5597,-3.200019745,-1.638479767,1.002485473
361074.6028,-0.297363281,-0.340454102,0.140563965,361074.5948,-4.277558158,-1.96009322,1.279692313
361074.6329,-0.220962524,-0.873565674,0.838943481,361074.6299,-2.977375217,-1.911234601,1.847617541
361074.663,0.241592407,-1.668762207,0.440795898,361074.6299,-2.977375217,-1.911234601,1.847617541
361074.6931,0.40083313,-2.355072021,0.094970703,361074.665,-2.321809352,-1.050888426,1.327868365
361074.7232,0.483398438,-1.713806152,1.066833496,361074.7001,-1.475873276,-1.051462604,0.822470697
361074.7533,0.075469971,-1.132766724,1.004318237,361074.7352,1.6562822,-0.912143592,0.003260508
361074.7834,3.89642334,-2.915420532,-3.12852478,361074.7703,-4.056040147,5.258681084,-1.467585252
361074.8135,0.807327271,0.165084839,-1.043746948,361074.8054,-1.760335632,-0.434209507,0.493232614
361074.8436,-0.016921997,-0.071807861,-1.003738403,361074.8405,0.280266279,-0.032669263,-0.131303163
361074.8736,-0.044586182,-0.531585693,-0.879470825,361074.8405,0.280266279,-0.032669263,-0.131303163
361074.9037,-0.187896729,-0.422164917,-0.885101318,361074.8757,-0.12288784,-0.079726255,0.125192806
361074.9338,-0.091766357,-0.27645874,-0.949996948,361074.9107,-0.292915229,0.253359564,-0.162138307
361074.9639,-0.017318726,-0.311508179,-0.975921631,361074.9459,0.235470845,0.116442191,-0.167546655
361074.994,-0.033798218,-0.234893799,-1.036102295,361074.9809,0.920840677,-0.084623808,-0.024482174
361075.0241,0.062957764,-0.065643311,-1.116897583,361075.0161,2.506617285,0.348324693,-0.128689537
361075.0542,0.473007202,-0.691467285,-1.528640747,361075.0512,4.890316371,-2.970998277,0.932753796
361075.0843,1.111999512,-1.589752197,-1.740982056,361075.0512,4.890316371,-2.970998277,0.932753796
361075.1144,-1.088485718,-3.032180786,-1.421463013,361075.0863,3.504334369,-7.858674124,-0.237570215
361075.1445,0.176879883,-1.126190186,-0.746322632,361075.1214,-0.376339816,1.739536877,-2.418722849
361075.1745,-0.042907715,-0.917144775,-1.830780029,361075.1565,1.514567941,1.384822195,-3.747989374
361075.2046,-0.587173462,-0.623214722,-2.748199463,361075.1916,2.229108976,1.725985381,-4.320864619
361075.2348,-0.748245239,-0.291015625,-2.757171631,361075.2267,0.700290992,1.934038716,-3.286397244
361075.2648,-0.606536865,0.395126343,-1.635177612,361075.2618,-0.605265676,1.248098967,-2.204307489
361075.2949,-0.879928589,0.694869995,-0.524139404,361075.2618,-0.605265676,1.248098967,-2.204307489
361075.325,-0.744674683,0.500106812,-0.201873779,361075.2969,-1.657284081,0.18254185,-1.07804468
361075.3551,-0.250045776,0.342529297,0.234359741,361075.332,-2.928108867,-1.283142439,0.548468439
361075.3852,-0.665344238,-0.327590942,0.672485352,361075.3671,-3.454270669,-1.474484704,1.072686666
361075.4153,-0.573638916,-0.910797119,0.737548828,361075.4022,-2.691436404,-1.82628349,2.96611111
361075.4454,0.037750244,-1.503662109,0.652236938,361075.4374,-1.550351239,-1.643502755,3.490132796
361075.4755,0.702026367,-1.799530029,0.943008423,361075.4724,-0.30026875,-0.426323887,1.714596639
361075.5056,0.027282715,-1.62612915,1.107833862,361075.4724,-0.30026875,-0.426323887,1.714596639
361075.5357,1.577606201,-5.939468384,-5.865905762,361075.5076,2.231842977,-1.065184009,1.409587197
361075.5658,0.272354126,-0.279022217,-1.127655029,361075.5427,-2.600707832,0.687146428,-0.039611592
361075.5958,-0.079864502,-0.125640869,-0.993347168,361075.5778,-1.034113973,-0.224739371,0.306722122
361075.6259,-0.084960938,-0.35017395,-0.878723145,361075.6129,0.016268186,-0.001964081,-0.025394573
361075.656,-0.105606079,-0.606933594,-0.813919067,361075.648,-0.515778669,0.124049245,0.03213237
361075.6861,-0.08631897,-0.263458252,-0.963867188,361075.6831,-0.480414021,0.303265871,-0.243878444
361075.7162,-0.039031982,-0.32220459,-0.971099854,361075.6831,-0.480414021,0.303265871,-0.243878444
361075.7463,-0.05758667,-0.350799561,-0.982116699,361075.7182,0.144886083,0.066763052,-0.072805764
361075.7764,-0.07989502,-0.26473999,-1.038101196,361075.7533,0.761261934,-0.001037568,-0.006766027
361075.8065,-0.056533813,-0.100814819,-1.078460693,361075.7884,2.111738673,0.567091658,-0.240898101
361075.8366,0.192901611,-0.440826416,-1.407333374,361075.8235,4.579867421,-0.320701853,-0.404618059
361075.8667,0.394577026,-1.130477905,-1.186813354,361075.8586,5.96939196,-3.056517973,-0.160478891
361075.8967,-0.594192505,-5.033462524,-2.742126465,361075.8937,0.79417541,0.923520084,-0.963293329
361075.9268,0.488571167,-2.152420044,-1.424545288,361075.8937,0.79417541,0.923520084,-0.963293329
361075.9569,0.173522949,-1.473953247,-3.491897583,361075.9289,3.360256821,1.355026749,-1.535248719
361075.987,0.180496216,-0.426345825,-3.451034546,361075.9639,1.25912978,2.222976248,-2.58828312
361076.0171,-0.94342041,0.708648682,-1.577758789,361075.9991,-1.367500729,1.735818571,-3.118473752
361076.0472,-1.563110352,1.165237427,-0.601715088,361076.0341,-1.897968863,1.201439053,-0.754816286
361076.0773,-1.196853638,1.072189331,-0.070175171,361076.0693,-3.097607352,0.038677621,1.702033177
361076.1074,-0.254730225,0.883331299,0.282058716,361076.1044,-3.7262167,-1.226106849,1.075850768
361076.1375,-0.736633301,-0.183517456,0.614547729,361076.1044,-3.7262167,-1.226106849,1.075850768
361076.1676,-0.760482788,-1.154541016,0.640289307,361076.1395,-3.652681496,-1.855778532,1.204681984
361076.1977,0.37387085,-2.004058838,0.895812988,361076.1746,-2.614021507,-1.883491386,3.401334483
361076.2278,0.327438354,-1.76071167,2.318939209,361076.2097,0.093282011,-0.889304056,2.132807473
361076.2578,1.375640869,-5.008682251,-3.509887695,361076.2448,3.461331774,-0.23496511,1.745853096
361076.2879,-0.013900757,0.336303711,-1.563491821,361076.2799,-2.673618258,0.188199469,-0.171841801
361076.3181,-0.088516235,-0.140731812,-0.976516724,361076.315,-1.526168671,-0.067988372,0.192221109
361076.3481,-0.042297363,-0.225982666,-1.011291504,361076.315,-1.526168671,-0.067988372,0.192221109
361076.3782,-0.04876709,-0.472045898,-0.903396606,361076.3501,-0.301698867,-0.0052166,0.024447819
361076.4083,-0.111282349,-0.459854126,-0.895980835,361076.3852,-0.382351103,-0.006754043,0.07683566
361076.4384,-0.055038452,-0.292129517,-0.965667725,361076.4204,-0.449886205,0.109670838,-0.040698694
361076.4685,-0.082641602,-0.317245483,-0.959533691,361076.4554,0.080775274,0.04102866,-0.072504561
361076.4986,-0.093719482,-0.343490601,-0.950454712,361076.4906,0.420518462,0.019479425,-0.043370111
361076.5287,-0.131317139,-0.151153564,-1.047775269,361076.5256,1.441655917,0.352232615,-0.232742436
361076.5588,0.03137207,0.01272583,-1.144012451,361076.5256,1.441655917,0.352232615,-0.232742436
361076.5889,0.210510254,-0.828720093,-1.447647095,361076.5608,4.036798275,0.163644325,-0.250267368
361076.619,-0.838378906,-3.686233521,0.195388794,361076.5959,6.128697463,-1.240441846,0.016059927
361076.649,-0.049362183,-1.647201538,0.314498901,361076.631,2.023747298,1.225306303,1.467527196
361076.6791,0.471374512,-2.317474365,-2.800872803,361076.6661,3.975953566,-0.606610572,0.933296282
361076.7092,0.971984863,-1.305618286,-3.317733765,361076.7012,3.251724485,0.232219924,-2.832849459
361076.7393,-0.176300049,-0.320953369,-2.960708618,361076.7363,0.708518562,0.69171508,-4.233750756
361076.7694,-1.025375366,0.421478271,-1.755050659,361076.7363,0.708518562,0.69171508,-4.233750756
361076.7995,-0.955764771,0.956192017,-0.613418579,361076.7714,-1.075799901,1.362359763,-2.327227287
361076.8296,-0.755599976,0.876541138,-0.127975464,361076.8065,-2.004404759,0.151124006,-0.042301917
361076.8597,-0.450271606,0.491378784,0.212387085,361076.8416,-3.547897825,-0.673309442,1.365943845
361076.8898,0.044845581,0.263977051,0.673553467,361076.8767,-3.876072242,-1.014685148,1.536079891
361076.9199,0.17628479,-0.330795288,0.519866943,361076.9118,-3.420069289,-1.142943519,0.782211425
361076.95,0.057357788,-1.109375,0.337432861,361076.9469,-3.496336896,-1.052154227,0.451483036
361076.98,0.206085205,-1.76965332,0.574920654,361076.9469,-3.496336896,-1.052154227,0.451483036
361077.0101,-0.12727356,-1.843048096,1.344924927,361076.9821,-2.115094256,-1.155937614,0.472345708
361077.0402,0.399230957,-6.709945679,-5.653518677,361077.0171,1.269736618,-1.083753965,1.165972139
361077.0703,-0.34223938,-0.190048218,-1.133377075,361077.0523,-1.92939949,-0.484783469,0.280377333
361077.1004,-0.216094971,-0.240814209,-0.933258057,361077.0873,-0.275621194,-0.04440688,0.221655164
361077.1305,-0.016067505,-0.466598511,-0.867431641,361077.1225,-0.233682798,0.037383059,0.062583487
361077.1606,-0.185913086,-0.316711426,-0.917053223,361077.1576,-0.301006978,0.317513517,-0.223808063
361077.1907,-0.014968872,-0.311630249,-0.96937561,361077.1576,-0.301006978,0.317513517,-0.223808063
361077.2208,-0.033584595,-0.237228394,-1.065383911,361077.1927,0.25826484,0.036206474,-0.07381457
361077.2509,-0.13520813,-0.03994751,-1.122146606,361077.2278,1.661083879,0.191520165,-0.116911174
361077.281,0.226348877,-0.412490845,-1.506835938,361077.2629,4.346106326,-0.007376157,-0.378481796
361077.3111,0.185134888,-2.068572998,-0.642288208,361077.298,6.040718871,-3.419724942,-0.542122925
361077.3412,-0.149154663,-1.976654053,-0.297088623,361077.3332,0.410298315,0.935816165,-1.313528041
361077.3712,0.081115723,-2.127761841,-1.532226563,361077.3682,3.095403853,-0.329733964,-1.17250727
361077.4014,0.039535522,-1.405334473,-2.771224976,361077.3682,3.095403853,-0.329733964,-1.17250727
361077.4315,0.009338379,-0.679367065,-3.787811279,361077.4033,3.224688073,2.270199687,-2.182593938
361077.4615,-0.394866943,0.426513672,-2.360427856,361077.4384,0.671338702,2.088754261,-2.471426541
361077.4916,-0.860244751,1.035186768,-0.817016602,361077.4736,-1.00707916,1.671049961,-1.817499852
361077.5217,-1.18132019,1.185333252,-0.158966064,361077.5086,-1.911354443,0.302211526,-0.18996621
361077.5518,-0.907180786,0.839019775,0.084823608,361077.5438,-3.747906549,-1.277590547,1.593109622
361077.5819,-0.819610596,0.033248901,0.454040527,361077.5789,-4.693038452,-1.504701196,2.228832806
361077.612,0.036224365,-0.683914185,1.042709351,361077.5789,-4.693038452,-1.504701196,2.228832806
361077.6421,0.304199219,-1.920639038,0.283889771,361077.614,-3.029830968,-2.414540089,2.649699876
361077.6722,0.341598511,-2.275863647,1.198165894,361077.6491,-2.404792919,-1.3609893,1.333500152
361077.7023,-0.039825439,-1.586746216,2.30166626,361077.6842,0.908711044,-0.388597547,0.303591576
361077.7324,1.49281311,-0.004272461,0.075958252,361077.7193,-2.980476734,0.271565732,-0.419851607
361077.7624,-0.018310547,-0.219314575,-0.991699219,361077.7544,-1.302301752,-0.321869383,0.42391639
361077.7925,-0.368942261,-0.177886963,-0.929077148,361077.7895,-0.284904973,0.051703408,-0.068930865
361077.8226,-0.04624939,-0.558776855,-0.849761963,361077.7895,-0.284904973,0.051703408,-0.068930865
361077.8527,-0.225280762,-0.319351196,-0.922958374,361077.8246,-0.624418065,0.046677757,0.118075508
361077.8828,-0.036422729,-0.291320801,-0.975524902,361077.8597,-0.426085534,0.321429695,-0.225135116
361077.9129,-0.063278198,-0.278579712,-0.994338989,361077.8948,0.336274155,0.060914217,-0.073970098
361077.943,-0.147338867,-0.208602905,-1.045455933,361077.9299,1.269394668,0.079397088,-0.054339938
361077.9731,-0.112731934,-0.074478149,-1.046905518,361077.9651,3.055122476,0.619029691,-0.535266351
361078.0032,0.177398682,-0.555007935,-1.432189941,361078.0002,5.653216149,-1.377404493,-0.347322013
361078.0333,0.207321167,-2.047531128,-0.099868774,361078.0002,5.653216149,-1.377404493,-0.347322013
361078.0634,-0.536148071,-3.385437012,-1.381607056,361078.0353,5.654039066,-1.51846388,-1.364924653
361078.0934,0.209960938,-2.219329834,-1.257598877,361078.0703,3.73432283,1.013227334,-0.635448346
361078.1235,0.551437378,-2.204238892,-3.463973999,361078.1055,5.185789833,0.907055889,-1.644873484
361078.1536,0.223709106,-0.817062378,-3.60774231,361078.1406,2.962358184,1.330322468,-3.52708895
361078.1837,-0.884429932,0.340240479,-3.004135132,361078.1757,-0.271858147,1.567728365,-2.951746019
361078.2138,-1.009368896,1.322555542,-1.354782104,361078.2108,-2.571378439,-0.554142836,-1.19336861
361078.2439,-1.260070801,1.429840088,-0.344604492,361078.2108,-2.571378439,-0.554142836,-1.19336861
361078.274,-0.729812622,1.067337036,-0.096343994,361078.2459,-4.309719024,-1.433159901,0.609915022
361078.3041,-0.120178223,0.399703979,-0.421966553,361078.281,-5.515798635,-2.516197741,1.51399696
361078.3342,0.715866089,-0.209243774,-0.139053345,361078.3161,-6.227989163,-3.40931651,0.373590368
361078.3643,0.271743774,-1.172973633,-0.237426758,361078.3512,-5.028341086,-2.986677372,-1.607255268
361078.3944,-0.143798828,-2.373825073,-0.781723022,361078.3864,-4.173418439,-2.573506837,-0.21114127
361078.4245,0.689559937,-2.586914063,0.817230225,361078.4214,-1.161054079,1.284356307,0.38447524
361078.4546,1.840591431,-6.644073486,-2.149673462,361078.4214,-1.161054079,1.284356307,0.38447524
361078.4847,0.522583008,2.131332397,0.975128174,361078.4566,0.710830718,-1.103030723,2.211200815
361078.5148,2.340682983,0.269241333,-0.938323975,361078.4917,0.506279174,2.404655234,-0.69669173
361078.5448,0.078155518,-0.453338623,-1.020950317,361078.5268,0.593342171,0.331981139,-0.053358563
361078.5749,0.058639526,-0.465637207,-0.970565796,361078.5618,0.470145937,0.122653216,0.008598016
361078.605,-0.02142334,-0.447418213,-0.928512573,361078.597,0.232152013,-0.023777235,-0.013563479
361078.6351,-0.030258179,-0.436126709,-0.914459229,361078.6321,0.239374506,-0.105943478,0.02887053
361078.6652,-0.050674438,-0.404067993,-0.91027832,361078.6321,0.239374506,-0.105943478,0.02887053
361078.6953,-0.057174683,-0.383483887,-0.920761108,361078.6672,0.360410384,-0.105485947,0.003539607
361078.7254,-0.087005615,-0.375350952,-0.942672729,361078.7023,0.714624125,-0.023333552,-0.047806937
361078.7555,-0.058074951,-0.334014893,-0.941436768,361078.7374,1.356182827,0.333907936,-0.235842888
361078.7856,0.055404663,-0.546600342,-0.965377808,361078.7725,2.257132887,0.285118559,-0.19439265
361078.8157,-0.012695313,-0.580169678,-0.943893433,361078.8076,3.087066028,-0.008686699,0.056451026
361078.8458,-0.077255249,-0.55809021,-0.945602417,361078.8427,4.127488498,-0.171350448,-0.056456352
361078.8758,0.022689819,-0.606140137,-0.922866821,361078.8427,4.127488498,-0.171350448,-0.056456352
361078.9059,0.507339478,-0.805862427,-1.149597168,361078.8779,5.440190959,-1.252462556,-0.099988117
361078.936,-0.261795044,-1.193786621,-3.568099976,361078.9129,5.446432343,-5.803940947,-0.166911491
361078.9661,0.177307129,0.506317139,-2.129882813,361078.948,-2.075995322,-1.986647866,-1.714295436
361078.9962,0.633132935,0.688034058,-1.564178467,361078.9831,-3.476385558,-2.032267549,-3.026734511
361079.0263,0.633834839,-0.00213623,-1.502822876,361079.0183,-4.9920928,-2.308297005,-4.31767069
361079.0564,0.301437378,-0.300888062,-0.812362671,361079.0534,-5.188175492,-3.193111239,-3.531058391
361079.0865,0.81640625,-0.589050293,-1.085449219,361079.0534,-5.188175492,-3.193111239,-3.531058391
361079.1166,0.837677002,-0.877487183,-1.006164551,361079.0885,-5.052331906,-3.537381268,-3.600940804
361079.1467,0.373306274,-1.223388672,-0.831069946,361079.1236,-4.129214226,-4.119272912,-2.49148547
361079.1767,2.148742676,-2.612686157,-1.807189941,361079.1587,-3.223868352,-2.287312361,-0.278932036
361079.2068,2.575927734,-2.055358887,0.613357544,361079.1938,-3.392163622,-1.740636496,-3.404134264
361079.2369,1.018325806,-2.215072632,0.740371704,361079.2289,-1.284180006,-1.686547161,-5.042987407
361079.267,0.306396484,-0.308013916,-1.308181763,361079.264,2.101468991,-0.676128131,-0.558968751
361079.2971,-1.059753418,-1.570556641,-1.897216797,361079.264,2.101468991,-0.676128131,-0.558968751
361079.3272,0.420089722,-1.371536255,-1.904937744,361079.2991,2.550353315,2.571185626,-0.481522961
361079.3573,0.102584839,-0.481338501,-1.083602905,361079.3342,0.612849293,0.500534735,-0.110157397
361079.3874,0.014846802,-0.376937866,-0.928421021,361079.3693,0.3754402,0.158851434,-0.046627423
361079.4175,0.013809204,-0.366241455,-0.920639038,361079.4044,0.402415891,0.039151398,0.064072194
361079.4476,0.00112915,-0.411560059,-0.937606812,361079.4395,0.420791703,-0.038478683,0.054448595
361079.4776,-0.020767212,-0.375961304,-0.912185669,361079.4746,0.463934912,-0.076519809,0.018581674
361079.5077,-0.015441895,-0.275299072,-0.902496338,361079.4746,0.463934912,-0.076519809,0.018581674
361079.5379,0.04296875,-0.468353271,-0.92930603,361079.5097,0.749116322,-0.303783323,-0.389121125
361079.5679,-0.030273438,-0.435638428,-0.909606934,361079.5448,0.825268881,-0.282186685,-0.18267341
361079.598,-0.038223267,-0.381668091,-0.927459717,361079.58,1.123524281,-0.197242499,0.043384758
361079.6281,0.028076172,-0.413513184,-0.956710815,361079.615,1.790037335,-0.341682503,0.13422758
361079.6582,0.071960449,-0.495513916,-0.961334229,361079.6502,2.650146754,-1.032231917,0.541834239
361079.6883,0.072601318,-0.422622681,-1.214599609,361079.6853,4.536789725,-2.628689133,0.838402526
361079.7184,0.100891113,-0.604171753,-1.497528076,361079.6853,4.536789725,-2.628689133,0.838402526
361079.7485,0.875427246,-1.221633911,-2.321105957,361079.7204,6.737708608,-6.595470772,0.459094085
361079.7786,0.159408569,-2.117050171,-3.960281372,361079.7555,2.302390114,-5.117009969,-6.114147549
361079.8087,-1.234054565,-0.997192383,-1.762390137,361079.7906,-2.203809478,-0.624485177,-6.14350091
361079.8388,0.37550354,-0.087112427,-0.851272583,361079.8257,-2.833161848,-0.728762581,-2.24903235
361079.8688,1.485290527,-0.261413574,-0.83833313,361079.8608,-3.752027525,-1.569805098,-3.716354482
361079.8989,0.668945313,-0.364639282,-0.232971191,361079.8959,-4.334745281,-2.339124693,-3.940066938
361079.929,0.838867188,-0.59487915,-0.369735718,361079.8959,-4.334745281,-2.339124693,-3.940066938
361079.9591,0.57975769,-0.585266113,-0.008148193,361079.931,-4.690788613,-3.121316943,-3.333796718
361079.9892,0.072555542,-0.740036011,0.394363403,361079.9661,-4.343792572,-2.766876035,-3.103208246
361080.0193,0.244827271,-0.891860962,0.189758301,361080.0012,-2.935208322,-2.609821169,-0.582503638
361080.0494,0.64453125,-0.917175293,0.245285034,361080.0363,-2.326913034,-2.226381632,0.42530869
361080.0795,0.599319458,-2.113845825,-0.170898438,361080.0715,-1.156059054,-1.280539199,0.368268041
361080.1096,0.598129272,-1.754104614,1.039321899,361080.1065,0.556349265,-0.648732193,-0.058844142
361080.1397,-0.281524658,-1.714202881,0.665603638,361080.1065,0.556349265,-0.648732193,-0.058844142
361080.1698,-0.450393677,0.458114624,-1.808502197,361080.1417,2.099420487,-1.230641413,1.420451829
361080.1999,-0.066986084,0.456237793,-0.839248657,361080.1768,-1.645119294,0.015208248,0.091077979
361080.2299,0.191116333,-0.505111694,-0.979736328,361080.2119,-0.010924819,0.121883562,-0.112651448
361080.26,0.011413574,-0.323760986,-0.850875854,361080.247,0.039501603,-0.042541602,0.013075855
361080.2901,-0.004852295,-0.461639404,-0.953445435,361080.2821,0.124960312,-0.052995041,0.022480009
361080.3202,-0.097640991,-0.434783936,-0.901550293,361080.3172,0.028968268,0.025708559,-0.01558908
361080.3503,-0.072921753,-0.312576294,-0.838790894,361080.3172,0.028968268,0.025708559,-0.01558908
361080.3804,-0.067504883,-0.377349854,-0.882537842,361080.3523,0.235875112,0.137405796,-0.097181411
361080.4105,-0.061141968,-0.407073975,-0.910339355,361080.3874,0.290150868,0.088410557,-0.061599449
361080.4406,-0.059326172,-0.461700439,-0.920730591,361080.4225,0.242205979,0.039346607,-0.07184676
361080.4707,-0.030593872,-0.434066772,-0.925262451,361080.4576,0.283645831,0.002033323,-0.037432061
361080.5008,-0.011169434,-0.305252075,-0.998168945,361080.4927,0.85749526,-0.132949529,0.250558984
361080.5309,-0.066986084,-0.139556885,-1.077560425,361080.5278,2.708728842,-0.048038899,0.049087119
361080.5609,-0.010879517,-1.071533203,-1.081497192,361080.5278,2.708728842,-0.048038899,0.049087119
361080.591,-0.209671021,-4.327285767,0.361831665,361080.563,4.692461611,-1.274127106,0.663086631
361080.6212,-0.101089478,-2.192932129,0.05708313,361080.5981,1.673628966,0.960694351,0.026139459
361080.6512,-0.060501099,-2.424835205,-2.538253784,361080.6332,4.652242552,0.693644008,-0.059945359
361080.6813,0.353729248,-1.890167236,-4.195678711,361080.6682,4.654548317,0.6457388,-2.088046126
361080.7114,0.008605957,-0.19128418,-3.511077881,361080.7034,1.871180125,0.862042075,-4.441270393
361080.7415,-0.979553223,0.848587036,-2.565734863,361080.7385,-0.090346675,1.290671728,-3.473611077
361080.7716,-1.24848938,1.518829346,-1.26348877,361080.7385,-0.090346675,1.290671728,-3.473611077
361080.8017,-0.833572388,1.561599731,-0.231414795,361080.7736,-2.134163554,-0.257448582,-0.405998109
361080.8318,-0.60345459,1.331802368,0.329299927,361080.8087,-3.463471358,-1.021533733,1.426508389
361080.8619,-0.257446289,0.349197388,-0.397125244,361080.8438,-3.797267175,-1.637541003,2.028192646
361080.892,-0.222564697,-0.720291138,0.470581055,361080.8789,-4.989930846,-2.704697082,2.508549941
361080.9221,-0.17149353,-1.953735352,0.581558228,361080.914,-3.412527217,-1.397792056,1.766755448
361080.9521,0.167770386,-2.339874268,1.880615234,361080.9491,0.432020123,-0.781603159,0.947023812
361080.9822,0.096343994,-3.31010437,0.732727051,361080.9491,0.432020123,-0.781603159,0.947023812
361081.0123,0.568771362,0.919906616,-0.644500732,361080.9843,-1.558219282,6.315574672,-2.159807399
361081.0424,0.129730225,-0.418838501,-1.21937561,361081.0193,-2.345322401,0.927041848,-0.183139996
361081.0725,-0.147506714,-0.100158691,-0.936553955,361081.0544,-0.959743069,0.309695008,-0.084962029
361081.1026,0.053619385,-0.55355835,-0.93963623,361081.0895,-0.125505195,0.176875442,-0.10093061
361081.1327,-0.080078125,-0.402267456,-0.90486145,361081.1247,-0.216300878,0.188384026,-0.111453824
361081.1628,-0.024734497,-0.38369751,-0.924468994,361081.1598,0.024361532,0.115591844,-0.11229272
361081.1929,-0.023956299,-0.352340698,-0.947479248,361081.1598,0.024361532,0.115591844,-0.11229272
361081.223,0.019348145,-0.281738281,-1.032272339,361081.1949,0.453769094,0.008973521,-0.053697051
361081.2531,-0.069534302,-0.074157715,-1.035095215,361081.23,1.636222205,0.038369227,0.057039584
361081.2832,0.360305786,-0.323471069,-1.45425415,361081.2651,3.906723096,0.074967718,-0.037838992
361081.3133,-0.202133179,-1.890258789,-0.821105957,361081.3002,5.910252207,-2.317466003,0.230950661
361081.3434,-0.280502319,-3.111801147,-0.556137085,361081.3353,1.196238166,1.129162193,-0.531257494
361081.3734,-0.002166748,-2.67225647,-1.976593018,361081.3704,3.177329612,-0.189170457,-0.676992327
361081.4035,0.026321411,-1.758087158,-2.957382202,361081.3704,3.177329612,-0.189170457,-0.676992327
361081.4336,0.172836304,-0.316421509,-2.943695068,361081.4055,2.805738745,0.009968745,-1.353522329
361081.4637,-0.144561768,0.361465454,-2.990234375,361081.4406,1.988312341,1.376397285,-2.812032328
361081.4938,-0.792755127,1.071868896,-1.536834717,361081.4758,-0.897699938,1.702601762,-2.571401076
361081.5239,-0.907806396,1.048553467,-0.516998291,361081.5108,-2.593303179,-0.13056094,-0.490413658
361081.554,-0.610931396,0.742797852,0.162216187,361081.546,-4.065202486,-1.099227197,1.064084123
361081.5841,-0.008331299,0.270828247,0.273361206,361081.5811,-5.188846609,-1.356934638,0.633753244
361081.6142,0.315429688,-0.670608521,0.238464355,361081.5811,-5.188846609,-1.356934638,0.633753244
361081.6443,-0.021972656,-1.226242065,0.591690063,361081.6162,-5.47149695,-2.080617771,-0.507934861
361081.6743,0.049942017,-1.498641968,1.021759033,361081.6513,-3.593826169,-1.732482962,1.059763144
361081.7045,0.787155151,-1.927185059,0.579833984,361081.6864,-0.769666871,-0.535795521,1.620837124
361081.7346,0.048629761,-1.759902954,0.781494141,361081.7215,1.200905622,-1.229469356,0.641823687
361081.7646,1.608093262,2.849639893,-0.217514038,361081.7566,-0.698725053,-0.118919996,-0.032335836
361081.7947,-0.095062256,-0.604629517,-0.943649292,361081.7917,0.407805597,0.064259148,-0.063608271
361081.8248,-0.162658691,-0.520233154,-0.944335938,361081.7917,0.407805597,0.064259148,-0.063608271
361081.8549,-0.107299805,-0.541870117,-0.930587769,361081.8268,0.220666332,-0.075374117,0.083083435
361081.885,-0.020812988,-0.395446777,-0.946517944,361081.8619,0.011690212,0.160897807,-0.018561434
361081.9151,-0.045852661,-0.366455078,-0.953536987,361081.897,0.212929317,0.09765572,-0.035770248
361081.9452,-0.057342529,-0.398269653,-0.936477661,361081.9321,0.259314659,0.08734689,-0.080039709
361081.9753,-0.012420654,-0.344894409,-0.946594238,361081.9673,0.439097207,0.024005734,-0.08895757
361082.0054,-0.034515381,-0.076324463,-1.103149414,361082.0023,1.897852216,0.11622541,-0.041110951
361082.0355,0.218414307,-0.05329895,-1.210357666,361082.0023,1.897852216,0.11622541,-0.041110951
361082.0655,0.2081604,-1.094268799,-1.36869812,361082.0375,4.796778696,-0.540844874,0.118946362
361082.0956,-1.047637939,-5.2603302,-1.880584717,361082.0725,5.675447685,-3.030221654,0.184746947
361082.1257,0.464508057,-1.728134155,-0.348144531,361082.1077,2.127353319,1.808813153,-0.278523507
361082.1558,-0.064956665,-2.1144104,-3.037948608,361082.1428,4.211771154,0.596177372,-0.874442552
361082.1859,0.401000977,-0.727233887,-3.658584595,361082.1779,3.07421095,1.89163986,-2.150198181
361082.216,-0.300796509,0.269561768,-3.206802368,361082.213,0.56163351,2.043462679,-2.865765331
361082.2461,-0.780899048,0.840606689,-1.864334106,361082.213,0.56163351,2.043462679,-2.865765331
361082.2762,-0.89491272,1.180938721,-0.297943115,361082.2481,-1.752165587,1.464865899,-1.436265146
361082.3063,-0.680984497,0.747680664,-0.015228271,361082.2832,-2.890363352,-0.055884039,0.430087467
361082.3364,-0.175262451,0.471481323,0.533050537,361082.3183,-4.191401168,-1.313222577,0.985399164
361082.3665,-0.725814819,-0.451141357,0.609924316,361082.3534,-4.482127279,-1.118379852,0.589847305
361082.3966,-0.109176636,-1.214004517,0.638870239,361082.3885,-3.578858671,-2.364554952,2.112480896
361082.4266,0.299438477,-1.651000977,1.498077393,361082.4236,-0.691576063,-2.028366817,1.622494675
361082.4567,-0.076278687,-2.331054688,1.432144165,361082.4236,-0.691576063,-2.028366817,1.622494675
361082.4868,0.335739136,-7.173034668,-5.108642578,361082.4588,2.134540658,-2.143491809,2.418217115
361082.5169,-0.066101074,-0.311553955,-1.342514038,361082.4938,-3.28716743,0.298431169,-0.202574414
361082.547,0.022460938,-0.100860596,-0.993179321,361082.529,-1.460285794,-0.096281263,0.360064173
361082.5771,0.025238037,-0.451400757,-0.877914429,361082.564,-0.133232623,0.032873262,-0.050322293
361082.6072,-0.173583984,-0.472564697,-0.854827881,361082.5992,-0.561802887,0.207007778,0.024434237
361082.6373,-0.104141235,-0.328857422,-0.956130981,361082.6343,-0.183334673,0.396732173,-0.24467686
361082.6674,-0.076828003,-0.282974243,-0.987304688,361082.6343,-0.183334673,0.396732173,-0.24467686
361082.6975,-0.037811279,-0.251815796,-1.055709839,361082.6694,0.532233809,0.152200455,-0.123787722
361082.7276,-0.047653198,-0.088684082,-1.099731445,361082.7045,1.90988278,0.286893023,-0.099048554
361082.7576,0.337646484,-0.652679443,-1.590835571,361082.7396,4.66517433,0.120511501,-0.214913105
361082.7878,-0.441390991,-3.920532227,0.204116821,361082.7747,6.635585435,-2.229436012,0.281585077
361082.8179,0.36378479,-1.740081787,0.303344727,361082.8098,2.585647656,1.606213972,0.505435751
361082.8479,0.562408447,-2.273025513,-2.655319214,361082.8449,3.735855213,-0.244798566,-1.193088445
361082.878,0.411087036,-0.926116943,-3.006347656,361082.8449,3.735855213,-0.244798566,-1.193088445
361082.9081,-0.125228882,-0.053146362,-3.277801514,361082.88,3.142282945,0.774703707,-3.233932704
361082.9382,-0.666107178,0.604766846,-2.372711182,361082.9151,0.630948669,1.798091001,-3.399386913
361082.9683,-0.950744629,0.929824829,-0.930267334,361082.9502,-2.014700007,1.463481588,-2.199572389
361082.9984,-0.917922974,0.76776123,-0.014144897,361082.9853,-3.367826058,-0.139995454,-0.078011978
361083.0285,-0.30632019,0.649612427,0.570861816,361083.0205,-3.634625264,-1.540323106,0.928897006
361083.0586,-0.412597656,-0.140426636,0.653533936,361083.0555,-3.8112264,-1.456569886,0.225347903
361083.0887,-0.296508789,-1.11555481,0.394958496,361083.0555,-3.8112264,-1.456569886,0.225347903
361083.1188,0.006469727,-1.589431763,0.965530396,361083.0907,-3.368843918,-2.918324413,2.032109091
361083.1488,0.619232178,-2.243759155,1.128295898,361083.1257,-1.899009093,-1.99747042,2.257253795
361083.1789,0.63243103,-1.43913269,1.989929199,361083.1609,0.476881071,-1.779943422,1.11491002
361083.209,1.676208496,0.7993927,-0.819915771,361083.196,-3.920302022,0.950806566,-0.284071404
361083.2391,0.144256592,-0.16960144,-1.063995361,361083.2311,-0.806284271,-0.041269942,0.14568663
361083.2692,-0.135726929,-0.438201904,-0.912719727,361083.2662,0.068105551,-0.010631872,0.03691088
361083.2993,-0.149505615,-0.592590332,-0.812271118,361083.2662,0.068105551,-0.010631872,0.03691088
361083.3294,-0.109832764,-0.342453003,-0.943435669,361083.3013,-0.537471714,0.182993255,-0.061652179
361083.3595,-0.032852173,-0.322769165,-0.97203064,361083.3364,-0.140769902,0.264615148,-0.200950152
361083.3896,-0.120605469,-0.218444824,-1.041015625,361083.3715,0.772466386,0.052542038,-0.072521605
361083.4197,-0.071151733,-0.067932129,-1.029602051,361083.4066,2.485708808,0.719391982,-0.479281911
361083.4498,0.19367981,-0.46661377,-1.398971558,361083.4417,5.226197443,-0.377752889,-0.342485712
361083.4799,-0.283859253,-2.061187744,-0.221466064,361083.4768,6.228347092,-0.917624378,-0.417531727
361083.5099,-0.21446228,-2.897659302,-0.650924683,361083.4768,6.228347092,-0.917624378,-0.417531727
361083.54,0.694793701,-2.109985352,-1.295776367,361083.512,2.711120893,1.096357907,0.545714731
361083.5701,0.250793457,-2.016342163,-2.809570313,361083.547,3.575006142,-0.615988628,-0.247977049
361083.6002,-0.047454834,-0.836578369,-2.765106201,361083.5822,2.818293419,1.064949917,-2.207622858
361083.6303,-0.454376221,-0.0078125,-2.53338623,361083.6172,1.200391099,1.355523429,-2.690585258
361083.6604,-0.895111084,0.610534668,-1.780105591,361083.6524,-1.041509039,1.75501943,-1.806963854
361083.6905,-0.950286865,0.974151611,-0.431167603,361083.6875,-2.663022606,0.064515344,0.096307628
361083.7206,-0.563140869,0.798477173,0.341140747,361083.6875,-2.663022606,0.064515344,0.096307628
361083.7507,-0.284759521,0.42805481,0.509048462,361083.7226,-3.344694906,-1.048851108,1.419176441
361083.7808,-0.378494263,-0.370651245,0.102249146,361083.7577,-3.54797772,-1.230086144,1.347221024
361083.8108,0.212783813,-0.746170044,0.33052063,361083.7928,-4.136003689,-1.996432053,2.068218626
361083.8409,0.719223022,-1.460891724,0.423156738,361083.8279,-3.475287803,-1.557914084,0.689833291
361083.8711,0.251144409,-1.882797241,1.242950439,361083.863,-1.688554919,-1.296142659,-0.925204267
361083.9011,-0.450775146,-1.62562561,1.80909729,361083.8981,-0.27169676,3.884869995,-0.975352656
361083.9312,0.306732178,0.805114746,-0.999404907,361083.8981,-0.27169676,3.884869995,-0.975352656
361083.9613,-0.214691162,-0.057723999,-1.006607056,361083.9332,-1.652034991,-0.063422382,0.278227097
361083.9914,-0.208496094,-0.284439087,-0.93182373,361083.9683,-0.125997347,-0.014179202,0.222282871
361084.0215,0.029968262,-0.701934814,-0.782318115,361084.0034,0.274648075,0.081692733,-0.001074053
361084.0516,-0.214401245,-0.586868286,-0.809555054,361084.0385,-0.630194461,0.037406494,0.048753158
361084.0817,-0.087112427,-0.345993042,-0.941864014,361084.0737,-0.487706821,0.221296436,-0.251659668
361084.1118,-0.02961731,-0.345581055,-0.962112427,361084.1087,0.286948683,0.242408379,-0.206024805
361084.1419,-0.063049316,-0.340881348,-0.971786499,361084.1087,0.286948683,0.242408379,-0.206024805
361084.172,-0.043731689,-0.247909546,-1.033126831,361084.1439,1.200264865,0.45021404,-0.155146977
361084.2021,0.034622192,-0.345611572,-1.137512207,361084.1789,2.993446861,0.432499225,-0.304294118
361084.2321,0.008422852,-0.909484863,-1.208633423,361084.2141,5.357020438,-1.02505097,-0.280196771
361084.2622,-0.707489014,-5.11491394,-0.506256104,361084.2492,4.663026757,-1.611392489,-0.761241162
361084.2923,-0.065704346,-1.825454712,0.815841675,361084.2843,3.236622763,0.320875225,0.252897506
361084.3224,-0.226547241,-2.110839844,-1.823822021,361084.3194,4.39249806,0.042771432,0.753319323
361084.3525,0.361022949,-0.762191772,-2.686843872,361084.3194,4.39249806,0.042771432,0.753319323
361084.3826,0.343643188,0.109695435,-3.050796509,361084.3545,4.04492358,-0.594571752,-0.672124069
361084.4127,-0.046722412,0.876602173,-2.214126587,361084.3896,1.29954538,-0.612516664,-2.10112784
361084.4428,0.085723877,1.115097046,-1.675628662,361084.4247,-0.841835873,-0.073804183,-2.904219247
361084.4729,0.030487061,1.04838562,-0.990768433,361084.4598,-2.771203405,-0.937915535,-2.565339721
361084.503,0.013534546,0.709289551,-0.580062866,361084.4949,-4.099927976,-2.152707678,-1.791847219
361084.533,-0.103744507,0.337753296,-0.377380371,361084.53,-4.428319707,-2.899848733,-0.700547454
361084.5631,0.003692627,-0.156555176,-1.023849487,361084.53,-4.428319707,-2.899848733,-0.700547454
361084.5932,0.605651855,-0.747055054,-1.633056641,361084.5651,-4.780855656,-3.656918053,0.224305808
361084.6233,0.72064209,-1.433502197,-1.343093872,361084.6002,-5.937854274,-4.60363933,-0.425744916
361084.6534,1.430709839,-2.132522583,-0.188980103,361084.6354,-5.30636232,-3.631594587,-1.614307585
361084.6835,1.234481812,-2.578323364,1.336196899,361084.6704,-0.582033856,-3.884407404,-3.231406696
361084.7136,-0.897735596,-5.725112915,-1.17414856,361084.7056,0.431000664,7.529084503,-5.876604765
361084.7437,-2.413787842,-0.1927948,0.249221802,361084.7407,-0.18673979,2.110177528,-0.977668274
361084.7738,-0.152832031,-0.291503906,-0.87336731,361084.7407,-0.18673979,2.110177528,-0.977668274
361084.8039,0.095779419,-0.375549316,-0.910919189,361084.7758,0.174932932,0.226742068,-0.111410681
361084.8339,-0.007354736,-0.445678711,-0.921020508,361084.8109,0.102957275,0.091031373,-0.050813913
361084.864,-0.013793945,-0.387771606,-0.911895752,361084.846,-0.001647431,0.095089232,-0.070028353
361084.8941,-0.004867554,-0.407516479,-0.921829224,361084.8811,0.09320691,0.004625112,-0.022420887
361084.9243,-0.042114258,-0.401794434,-0.90977478,361084.9162,0.156207181,-0.018681809,-0.010100571
361084.9543,-0.035140991,-0.391891479,-0.904174805,361084.9513,0.221185649,-0.008473113,-0.104169546
361084.9844,-0.067855835,-0.333435059,-0.911148071,361084.9513,0.221185649,-0.008473113,-0.104169546
361085.0145,-0.014129639,-0.3568573,-0.942077637,361084.9864,0.703111279,-0.357712602,-0.495222794
361085.0446,0.011154175,-0.33416748,-0.985519409,361085.0215,1.324931164,-0.610742466,-0.884488262
361085.0747,0.061019897,-0.356201172,-1.100158691,361085.0566,2.438721059,-1.536867655,-0.946723407
361085.1048,0.127731323,-0.447402954,-1.170532227,361085.0917,4.066146843,-2.656426755,-0.554565214
361085.1349,0.038833618,-0.582046509,-1.410858154,361085.1269,5.504266615,-3.199964085,-0.722946237
361085.165,-0.119171143,-0.372268677,-3.559875488,361085.1619,1.797803113,-0.987129154,-2.520840962
361085.1951,0.616363525,0.673858643,-2.007919312,361085.1619,1.797803113,-0.987129154,-2.520840962
361085.2252,0.172531128,0.333572388,-1.68208313,361085.1971,-1.668314362,-1.626891554,-3.47374317
361085.2553,0.650512695,0.136184692,-1.12739563,361085.2322,-3.90074856,-1.792034972,-3.192449709
361085.2853,1.406082153,-0.185577393,-0.851867676,361085.2673,-4.876675127,-3.087047652,-3.710603918
361085.3154,1.651199341,-0.452087402,-0.793136597,361085.3024,-4.512175725,-3.851755984,-5.477102372
361085.3455,0.822280884,-1.041244507,-1.157440186,361085.3375,-4.357384281,-4.429546359,-5.23860298
361085.3756,0.757461548,-1.308166504,-0.446258545,361085.3726,-3.445047609,-2.512188618,-2.391972994
361085.4057,1.697631836,-2.371017456,-0.814453125,361085.3726,-3.445047609,-2.512188618,-2.391972994
361085.4358,1.322998047,-2.542449951,0.86100769,361085.4077,-3.553873959,-1.123093914,-1.694490572
361085.4659,0.32182312,-1.508468628,2.958114624,361085.4428,-1.41028601,-0.134062997,-1.97957451
361085.496,-1.138671875,-0.219024658,-0.085662842,361085.4779,2.134610965,0.91643794,-0.700794329
361085.5261,-0.709472656,-3.635406494,-4.043426514,361085.513,3.043422677,2.252051043,-0.927752113
361085.5562,-0.666427612,-0.700180054,-1.088806152,361085.5481,0.603918649,0.315462616,-0.156611449
361085.5863,0.119064331,-0.507507324,-1.012435913,361085.5832,0.511108017,-0.001728125,-0.008380702
361085.6163,0.01902771,-0.482727051,-0.962387085,361085.5832,0.511108017,-0.001728125,-0.008380702
361085.6464,-0.087341309,-0.446350098,-0.927520752,361085.6184,0.362222399,-0.239914595,0.061734737
361085.6765,-0.072387695,-0.392669678,-0.927078247,361085.6534,0.251531304,-0.115291439,-0.013632189
361085.7066,-0.027420044,-0.325485229,-0.978637695,361085.6886,0.448619073,-0.159299111,-0.047869255
361085.7367,-0.081924438,-0.1693573,-1.065795898,361085.7236,1.534027127,0.091592768,-0.000344879
361085.7668,0.09979248,-0.273986816,-1.223846436,361085.7588,3.830632855,-0.385669934,0.05794719
361085.7969,0.398162842,-0.659072876,-1.40763855,361085.7939,6.214375084,-3.156085044,0.550145165
361085.827,1.159896851,-2.114318848,-0.480407715,361085.7939,6.214375084,-3.156085044,0.550145165
361085.8571,0.063644409,-2.440078735,-1.247421265,361085.829,3.939301013,-3.36181477,-3.447711303
361085.8872,-0.94593811,-2.159286499,-1.859375,361085.8641,2.553621013,-2.114034051,-4.468508406
361085.9172,-1.011459351,-1.207519531,-3.290252686,361085.8992,3.299551129,0.300287925,-2.337918281
361085.9473,-0.160186768,-0.402175903,-2.919464111,361085.9343,1.275528994,1.098745964,-1.257974767
361085.9774,0.039764404,-0.00402832,-1.864578247,361085.9694,-1.088862706,0.56660643,-1.577796446
361086.0075,-0.208297729,0.535644531,-0.340484619,361086.0045,-2.378664113,-0.332381146,-1.141641233
361086.0376,-0.359481812,0.48840332,0.084182739,361086.0045,-2.378664113,-0.332381146,-1.141641233
361086.0677,-0.15763855,0.289840698,0.254974365,361086.0396,-3.340637846,-0.9090229,-0.003353186
361086.0978,0.140838623,0.123672485,0.354110718,361086.0747,-4.133771427,-1.523366759,0.20039142
361086.1279,-0.1171875,-0.132400513,0.816238403,361086.1098,-4.224974575,-1.901902884,-0.413103689
361086.158,0.13130188,-1.219192505,0.323989868,361086.1449,-3.154564379,-2.579355672,0.501658589
361086.1881,0.638137817,-1.864837646,0.683166504,361086.1801,-2.543809928,-1.062806605,0.339158625
361086.2182,0.413711548,-2.045089722,2.02532959,361086.2151,0.724984887,-1.570074876,-0.114140155
361086.2483,1.16065979,-6.741317749,-4.899719238,361086.2151,0.724984887,-1.570074876,-0.114140155
361086.2784,-0.076873779,-0.346588135,-1.045730591,361086.2503,-2.775597621,-0.442001118,-0.260044365
361086.3085,-0.427215576,-0.155822754,-0.822265625,361086.2854,-0.895304691,-0.089676091,0.422582945
361086.3386,0.173614502,-0.292297363,-0.981201172,361086.3205,-0.399047525,0.525754338,-0.411689551
361086.3686,-0.107254028,-0.445983887,-0.917861938,361086.3556,-0.148909587,0.142211204,0.010551444
361086.3987,-0.002960205,-0.361968994,-0.943786621,361086.3907,-0.016201074,0.053147108,0.009572999
361086.4288,-0.04006958,-0.380783081,-0.942092896,361086.4258,0.226374019,-0.054922105,0.039536491
361086.4589,-0.024230957,-0.288986206,-0.984375,361086.4258,0.226374019,-0.054922105,0.039536491
361086.489,-0.136825562,-0.07635498,-1.061126709,361086.4609,0.848928936,-0.177173449,0.14062689
361086.5191,0.179428101,-0.215682983,-1.222473145,361086.496,2.706840128,0.490259195,-0.303992382
361086.5492,0.302474976,-1.028305054,-1.442855835,361086.5311,5.539942853,-1.512631557,0.262434019
361086.5793,-0.460891724,-4.364273071,-0.394332886,361086.5662,4.590057208,-0.598937739,-0.778139185
361086.6094,0.45803833,-1.486968994,0.209579468,361086.6013,3.340196827,1.790695935,-0.685251322
361086.6395,0.494644165,-2.137145996,-2.114624023,361086.6364,3.514941207,1.432622475,-1.866740103
361086.6695,0.60496521,-1.800674438,-2.850097656,361086.6364,3.514941207,1.432622475,-1.866740103
361086.6996,-0.123062134,-1.037811279,-3.343444824,361086.6716,3.433835168,2.211074315,-2.840905521
361086.7297,-0.856277466,-0.120834351,-2.936080933,361086.7066,1.385326864,1.925437771,-2.188411613
361086.7598,-0.806564331,0.923934937,-1.331420898,361086.7418,-1.21642759,1.500295262,-0.505902869
361086.7899,-0.625030518,1.073135376,-0.591018677,361086.7768,-2.767087223,-0.155530738,0.409804033
361086.82,-0.501556396,1.039993286,0.538848877,361086.812,-3.899824976,-1.690895571,1.316501461
361086.8501,-0.090911865,0.367980957,0.113388062,361086.8471,-4.156357696,-3.141889862,1.785483862
361086.8802,-0.165771484,-0.531890869,0.319244385,361086.8471,-4.156357696,-3.141889862,1.785483862
361086.9103,0.225158691,-1.072097778,0.643203735,361086.8822,-4.414036109,-1.950577746,0.762743984
361086.9404,0.262069702,-1.590957642,1.033309937,361086.9173,-2.92197614,-1.973879873,1.167412376
361086.9705,0.472885132,-2.177627563,1.167739868,361086.9524,0.320215294,-1.179642677,0.843439895
361087.0005,-0.457717896,-7.051895142,-4.356765747,361086.9875,-2.75836111,4.026690513,-1.36155176
361087.0306,0.048934937,0.013061523,-1.230667114,361087.0226,-2.28624976,0.364726037,-0.121362648
361087.0607,0.128799438,-0.340087891,-0.948135376,361087.0577,-1.236442844,0.022329008,0.177487969
361087.0908,-0.210754395,-0.252120972,-0.923233032,361087.0577,-1.236442844,0.022329008,0.177487969
361087.1209,-0.022537231,-0.535064697,-0.909469604,361087.0928,-0.402855313,0.231834032,-0.178291711
361087.151,-0.142456055,-0.385040283,-0.935119629,361087.1279,-0.43449846,0.118963406,0.029791718
361087.1811,-0.043731689,-0.359069824,-0.958587646,361087.163,-0.13353143,0.210162292,-0.16482304
361087.2112,-0.039291382,-0.314727783,-0.966934204,361087.1981,0.288246175,0.073609773,-0.085097052
361087.2413,-0.064254761,-0.199645996,-1.071121216,361087.2333,1.28189821,0.07819547,-0.017995778
361087.2714,0.000823975,0.032241821,-1.090484619,361087.2684,3.590884441,0.498564262,-0.412732178
361087.3015,0.387527466,-0.605392456,-1.475280762,361087.2684,3.590884441,0.498564262,-0.412732178
361087.3316,-0.328765869,-3.129760742,0.911682129,361087.3035,6.14231314,-2.274160074,0.216523519
361087.3617,0.342071533,-2.253570557,0.403991699,361087.3386,2.424788998,1.450102399,-0.12624076
361087.3918,0.130981445,-3.108963013,-2.471435547,361087.3737,4.606350961,0.095883919,-0.445682139
361087.4219,-0.195785522,-1.788223267,-3.384902954,361087.4088,4.257641974,1.578208703,-1.14259278
361087.452,0.193328857,-0.477035522,-3.769897461,361087.4439,2.311816106,1.98265339,-2.032400707
361087.482,-0.645477295,0.771835327,-2.452255249,361087.479,-0.228687773,2.315306978,-2.051135246
361087.5121,-0.918960571,1.219207764,-1.287109375,361087.479,-0.228687773,2.315306978,-2.051135246
361087.5422,-0.992843628,1.088027954,-0.509170532,361087.5141,-2.593948729,0.886665663,-0.347820823
361087.5723,-0.813751221,1.009048462,0.267166138,361087.5492,-4.620581828,-0.077593063,1.072938335
361087.6024,-0.328109741,0.470993042,0.64994812,361087.5843,-5.140427144,-1.217160226,1.051153677
361087.6325,-0.324264526,-0.872909546,0.557113647,361087.6194,-4.31032942,-1.280657443,1.008722064
361087.6626,-0.197631836,-2.07208252,0.422042847,361087.6546,-4.281139044,-1.507096443,2.077727709
361087.6927,0.544342041,-2.06350708,2.246734619,361087.6897,-0.44353137,-1.507552376,1.061144792
361087.7228,0.421081543,-2.233703613,1.631912231,361087.6897,-0.44353137,-1.507552376,1.061144792
361087.7529,0.4871521,0.958969116,-1.40083313,361087.7248,-4.012125153,4.080939105,-1.640022536
361087.7829,-0.226043701,-0.144989014,-1.021957397,361087.7598,-1.422895012,-0.361519591,0.406529144
361087.813,-0.070632935,-0.5078125,-0.964920044,361087.795,0.084969752,0.073525883,-0.187394129
361087.8431,-0.073028564,-0.552719116,-0.851638794,361087.8301,0.070031017,-0.102938899,0.194290118
361087.8732,-0.154052734,-0.430526733,-0.8621521,361087.8652,-0.415320505,0.207482087,-0.214712569
361087.9033,-0.052520752,-0.300643921,-0.937744141,361087.9003,-0.056586314,0.231672911,-0.164999607
361087.9334,-0.062026978,-0.239089966,-0.994186401,361087.9003,-0.056586314,0.231672911,-0.164999607
361087.9635,-0.115341187,-0.161437988,-1.026794434,361087.9354,0.934529858,0.153489159,-0.158886854
361087.9936,0.054275513,-0.366485596,-1.196090698,361087.9705,2.585160298,0.651486168,-0.470966457
361088.0237,0.234222412,-0.839172363,-1.447784424,361088.0056,5.225807556,-0.982196713,0.036997699
361088.0538,0.60949707,-4.045822144,0.383285522,361088.0407,6.136913847,-2.113911546,-1.702389774
361088.0838,-0.128295898,-2.115570068,0.255279541,361088.0758,2.445366711,0.041730669,-2.654595299
361088.1139,-0.31211853,-2.9559021,-2.623413086,361088.1109,4.183707296,-0.958487655,-1.539806186
361088.144,-0.686752319,-1.519470215,-3.538879395,361088.1109,4.183707296,-0.958487655,-1.539806186
361088.1742,-0.164016724,0.06187439,-3.193252563,361088.146,2.785359171,1.611598884,-0.065442656
361088.2042,0.345352173,1.033996582,-2.140136719,361088.1811,0.5807092,1.377711555,0.584470915
361088.2343,0.110946655,1.472900391,-0.979812622,361088.2163,-1.747867245,0.642151522,-0.82945537
361088.2644,-0.221755981,1.175704956,-0.470901489,361088.2513,-4.581540419,-0.249808239,-1.215032626
361088.2945,-0.361572266,1.074859619,1.048217773,361088.2865,-5.215187935,-0.961192362,-0.660515616
361088.3246,-0.999221802,-0.489181519,0.66506958,361088.3216,-4.902241473,-1.151498391,0.590575945
361088.3547,-0.306396484,-1.676895142,0.817749023,361088.3216,-4.902241473,-1.151498391,0.590575945
361088.3848,0.512512207,-2.117492676,2.068313599,361088.3567,-4.071873705,-1.145932384,1.930876213
361088.4149,-0.476150513,-3.457595825,1.641540527,361088.3918,-0.12508335,-2.576185445,1.845254252
361088.445,0.027572632,1.600341797,-1.565292358,361088.4269,-3.092403003,-0.279085966,0.227009449
361088.4751,0.004623413,-0.264694214,-1.024429321,361088.462,0.281702789,-0.103418535,0.19548934
361088.5051,-0.006378174,-0.657104492,-0.829467773,361088.4971,0.210703446,0.07309525,-0.022021679
361088.5352,-0.106994629,-0.677520752,-0.82635498,361088.5322,-0.622224153,0.083503949,-0.012799152
361088.5653,-0.145614624,-0.381622314,-0.9193573,361088.5322,-0.622224153,0.083503949,-0.012799152
361088.5954,0.019775391,-0.220169067,-1.026596069,361088.5673,-0.579002646,0.397200889,-0.352227023
361088.6255,-0.061798096,-0.13760376,-1.050765991,361088.6024,0.64032193,0.130182505,-0.132283206
361088.6556,0.096588135,-0.160171509,-1.137481689,361088.6375,2.479167019,0.628171791,-0.331576073
361088.6857,0.14012146,-0.776626587,-1.478302002,361088.6726,5.62425587,-0.785246097,0.278312851
361088.7158,0.064819336,-3.315979004,1.162399292,361088.7078,7.022955532,-0.354438778,0.291389504
361088.7459,0.452774048,-3.049789429,-1.315612793,361088.7428,3.315512519,0.729597748,0.329533428
361088.776,0.818695068,-2.191680908,-1.421661377,361088.7428,3.315512519,0.729597748,0.329533428
361088.806,-0.145797729,-2.337966919,-2.971725464,361088.778,5.226977217,-1.496471762,-1.314043629
361088.8361,-0.372131348,-1.174209595,-3.161911011,361088.813,3.635579208,0.475877858,-3.471335406
361088.8662,-0.936645508,-0.159927368,-2.654129028,361088.8482,1.107089914,1.540805671,-3.875433882
361088.8963,-1.178329468,0.522125244,-1.872802734,361088.8833,-1.514638249,2.107949793,-2.867558437
361088.9264,-1.30557251,1.058288574,-0.321640015,361088.9184,-3.8407028,0.32640954,-0.591856926
361088.9565,-0.639755249,0.962081909,0.417144775,361088.9535,-4.542184225,-1.621150045,1.048882533
361088.9866,-0.557556152,0.260437012,0.257995605,361088.9535,-4.542184225,-1.621150045,1.048882533
361089.0167,-0.821029663,-0.898513794,-0.182266235,361088.9886,-4.710297334,-2.095378075,1.037131069
361089.0468,-0.011703491,-1.203231812,0.810699463,361089.0237,-5.207767303,-2.481064787,3.273776524
361089.0769,0.930480957,-1.718673706,0.848632813,361089.0588,-3.443638264,-2.136720455,3.323522509
361089.107,0.841278076,-1.960357666,1.197433472,361089.0939,-2.036683869,-1.436838259,0.477662975
361089.137,0.045516968,-1.472930908,1.717880249,361089.129,1.17517629,0.058254518,0.083052809
361089.1671,2.243652344,0.341659546,-0.923675537,361089.1641,-3.332990313,-0.261607108,-0.008773518
361089.1972,-0.07925415,0.193359375,-1.092010498,361089.1641,-3.332990313,-0.261607108,-0.008773518
361089.2274,-0.090713501,-0.344024658,-0.94140625,361089.1992,-0.370424402,0.194760433,0.025380724
361089.2574,-0.1512146,-0.558410645,-0.833358765,361089.2343,0.207363842,-0.098036819,0.139323805
361089.2875,-0.164367676,-0.370834351,-0.898849487,361089.2695,-0.311460418,0.162539379,-0.106159726
361089.3176,-0.077972412,-0.339477539,-0.945404053,361089.3045,-0.080000294,0.232728854,-0.176963326
361089.3477,-0.033981323,-0.32371521,-0.982681274,361089.3397,0.545839899,0.077494792,-0.079132636
361089.3778,-0.127212524,-0.202453613,-1.018890381,361089.3748,1.624108551,0.525174568,-0.220681512
361089.4079,-0.009063721,-0.212463379,-1.066207886,361089.3748,1.624108551,0.525174568,-0.220681512
361089.438,0.141403198,-0.640731812,-1.339599609,361089.4099,3.663448124,0.562126194,-0.526796167
361089.4681,-0.220062256,-2.488830566,0.674728394,361089.445,5.645225068,-1.121955146,-0.332790208
361089.4982,-0.160827637,-3.603729248,-1.207183838,361089.4801,3.628256048,0.345030362,0.32959042
361089.5283,0.771606445,-2.474914551,-1.684158325,361089.5152,4.446350373,0.547822623,0.033271138
361089.5583,0.282897949,-2.273178101,-3.21887207,361089.5503,4.824308858,0.059856942,-1.255076183
361089.5884,0.224731445,-0.932022095,-3.623916626,361089.5854,3.290310493,1.596705955,-2.473635367
361089.6185,-0.389831543,0.380462646,-3.104431152,361089.5854,3.290310493,1.596705955,-2.473635367
361089.6486,-0.531280518,1.316604614,-1.932632446,361089.6205,0.448146096,1.673696078,-2.193877485
361089.6787,-0.739440918,1.459472656,-0.84223938,361089.6556,-2.107627285,0.11082372,-1.038346802
361089.7088,-0.625137329,1.082839966,-0.222595215,361089.6907,-4.484575257,-1.293189746,0.178158819
361089.7389,-0.192840576,0.703842163,0.152816772,361089.7258,-5.014998649,-2.602828773,0.764994088
361089.769,0.356903076,-0.39730835,-0.337371826,361089.761,-5.045633523,-4.538024367,-0.264749904
361089.7991,-0.044250488,-1.384307861,-0.231765747,361089.796,-5.408159523,-4.527929921,-0.136525622
361089.8292,0.139572144,-1.612640381,0.457382202,361089.796,-5.408159523,-4.527929921,-0.136525622
361089.8593,0.598510742,-1.887115479,0.926956177,361089.8312,-3.612388934,-3.22005364,0.396833906
361089.8893,-0.091934204,-3.951629639,1.205307007,361089.8662,-0.622460642,-2.525034909,-0.034519628
361089.9194,-0.386749268,1.25390625,0.07069397,361089.9014,-3.104268984,-0.378988862,-3.423571612
361089.9495,-0.288909912,-0.240661621,-0.904724121,361089.9365,0.601817415,-0.106548548,0.145650677
361089.9796,-0.128417969,-0.427047729,-0.891326904,361089.9716,0.29881786,-0.00740705,-0.058600463
361090.0097,-0.072463989,-0.535247803,-0.871505737,361090.0067,0.130707946,-0.05652586,0.097089
361090.0398,-0.072814941,-0.454055786,-0.887878418,361090.0067,0.130707946,-0.05652586,0.097089
361090.0699,-0.050201416,-0.412887573,-0.901107788,361090.0418,0.045345111,0.021670674,-0.052705023
361090.1,-0.051574707,-0.423248291,-0.905441284,361090.0769,0.300943062,0.05226427,-0.06691858
361090.1301,-0.06690979,-0.42225647,-0.898193359,361090.112,0.59710362,0.167118418,-0.087899496
361090.1602,-0.049118042,-0.417388916,-0.896240234,361090.1471,1.000989576,0.33278355,-0.207694873
361090.1903,-0.055114746,-0.456848145,-0.919769287,361090.1822,1.631783248,0.254135875,-0.316212563
361090.2204,-0.005371094,-0.491744995,-0.947021484,361090.2173,2.431517741,0.085398255,-0.412542561
361090.2504,0.020065308,-0.562988281,-0.943252563,361090.2173,2.431517741,0.085398255,-0.412542561
361090.2805,0.126800537,-0.540893555,-0.996398926,361090.2525,3.540016999,-0.407585087,-0.433052896
361090.3107,0.149291992,-0.731338501,-0.997192383,361090.2876,4.912813158,-1.674944301,-0.233656966
361090.3407,0.187271118,-0.67616272,-2.899383545,361090.3227,5.270689278,-3.443837203,-0.626061502
361090.3708,0.385635376,0.368515015,-2.300354004,361090.3577,-0.774882406,-1.577800973,-2.969817698
361090.4009,0.533218384,0.452865601,-1.413803101,361090.3929,-2.4324605,-2.838707348,-3.897779402
361090.431,0.08946228,0.253890991,-1.201004028,361090.428,-3.672343615,-3.164505959,-3.281485842
361090.4611,0.287796021,-0.182388306,-1.194671631,361090.428,-3.672343615,-3.164505959,-3.281485842
361090.4912,0.83493042,-0.3697052,-0.848495483,361090.4631,-4.788998538,-4.338742419,-1.727001111
361090.5213,1.121017456,-0.969482422,-1.247909546,361090.4982,-4.456292486,-3.966879644,-1.811787372
361090.5514,1.335418701,-1.266021729,-0.315841675,361090.5333,-4.530439684,-3.406289028,-1.742722017
361090.5815,1.237625122,-2.034011841,0.504348755,361090.5684,-1.06527935,-2.471411894,-2.630525116
361090.6116,0.614837646,-2.191482544,1.883132935,361090.6035,2.972528796,-3.406013391,-2.101235432
361090.6416,1.382339478,-5.347167969,-2.527923584,361090.6386,-2.430678845,-0.340181012,-1.77490046
361090.6717,0.287445068,-0.993804932,-1.474761963,361090.6386,-2.430678845,-0.340181012,-1.77490046
361090.7018,0.010375977,-0.213592529,-0.999984741,361090.6738,-1.184980984,0.828741909,-0.326522991
361090.7319,0.119018555,-0.349807739,-0.927185059,361090.7088,-0.055609999,0.233253763,-0.27362622
361090.762,-0.064407349,-0.385269165,-0.908294678,361090.7439,0.366503164,-0.336363371,0.195694137
361090.7921,-0.091766357,-0.444229126,-0.889907837,361090.779,0.642931296,-0.344866312,0.130460006
361090.8222,-0.125,-0.519485474,-0.859313965,361090.8142,0.449764765,-0.188587492,0.067087158
361090.8523,-0.124862671,-0.488693237,-0.867721558,361090.8493,0.404860673,0.023896811,-0.086129026
361090.8824,-0.112197876,-0.483947754,-0.862716675,361090.8493,0.404860673,0.023896811,-0.086129026
361090.9125,-0.068756104,-0.434356689,-0.897323608,361090.8844,0.477881354,0.213942117,-0.152941347
361090.9425,-0.019302368,-0.438858032,-0.92388916,361090.9194,0.948442744,0.200420982,-0.168182351
361090.9726,0.106079102,-0.431945801,-0.992630005,361090.9546,1.683631799,-0.178681864,0.051566522
361091.0027,0.209762573,-0.450866699,-1.208450317,361090.9897,3.288343482,-1.978279415,0.584155064
361091.0328,0.201461792,-0.887557983,-1.553497314,361091.0248,5.155238049,-5.216994091,0.730700563
361091.0629,2.520614624,-1.886352539,-2.074432373,361091.0599,3.753937011,-7.382059901,-4.287291745
361091.093,0.104660034,-1.713546753,-1.743225098,361091.0599,3.753937011,-7.382059901,-4.287291745
361091.1231,-0.492675781,-0.991287231,-1.893569946,361091.095,1.211183293,-2.490826604,-5.513982359
361091.1532,0.272262573,-0.263763428,-1.735214233,361091.1301,0.070393739,-0.199926166,-3.390114053
361091.1833,0.906692505,0.048797607,-1.174575806,361091.1652,-1.576406542,-0.785580856,-2.776830132
361091.2134,0.655014038,-0.193405151,-0.64465332,361091.2003,-3.732581123,-1.473238344,-3.635971226
361091.2435,0.348892212,-0.297698975,0.015380859,361091.2355,-4.866339931,-2.295540197,-3.563249085
361091.2736,0.169586182,-0.368560791,0.217681885,361091.2706,-4.784609115,-3.169507109,-2.880141874
361091.3037,-0.365234375,-0.906097412,0.285873413,361091.2706,-4.784609115,-3.169507109,-2.880141874
361091.3338,-0.492034912,-1.627182007,0.328933716,361091.3057,-4.150244144,-2.951561196,-1.534908101
361091.3639,0.346817017,-1.904403687,0.533676147,361091.3408,-3.438061605,-2.124178831,0.447806809
361091.394,0.699768066,-1.646652222,1.730133057,361091.3759,-1.398301785,-0.808762608,-0.470082553
361091.4241,-0.222671509,-1.712417603,1.394851685,361091.411,2.501869934,-0.95401168,-0.100716758
361091.4542,1.272109985,-2.680526733,-1.140518188,361091.4461,-3.468234688,-0.137204461,0.623898216
361091.4842,-0.527206421,-0.555435181,-1.054504395,361091.4812,1.173706225,-0.274362584,-0.055366586
361091.5143,0.068496704,-0.574859619,-0.924194336,361091.4812,1.173706225,-0.274362584,-0.055366586
361091.5444,-0.047225952,-0.466629028,-0.936050415,361091.5163,-0.030874559,-0.068776401,0.11555962
361091.5745,-0.049804688,-0.209381104,-0.829376221,361091.5514,-0.320913575,0.104499245,0.003270894
361091.6046,0.007995605,-0.334915161,-0.902130127,361091.5865,0.343506235,-0.027640416,-0.031555263
361091.6347,-0.008789063,-0.427841187,-0.920837402,361091.6216,0.469645795,-0.141312121,-0.011375959
361091.6648,-0.076644897,-0.489395142,-0.938339233,361091.6568,0.354042766,-0.155561098,0.00651569
361091.6949,-0.091796875,-0.454742432,-0.925384521,361091.6918,0.243450741,-0.026623355,-0.080553432
361091.725,-0.046844482,-0.416168213,-0.921157837,361091.6918,0.243450741,-0.026623355,-0.080553432
361091.7551,-0.04750061,-0.26864624,-0.982772827,361091.727,0.389287572,-0.121382888,0.004865862
361091.7851,-0.085922241,-0.070526123,-1.097335815,361091.762,1.473182418,-0.024675519,0.008239021
361091.8152,0.227035522,-0.576187134,-1.333328247,361091.7972,3.852469711,-0.155710235,-0.148822768
361091.8453,-0.231964111,-2.437713623,0.213989258,361091.8323,4.762542163,-2.335658855,-0.652654497
361091.8754,-0.341369629,-2.150726318,-0.257598877,361091.8674,2.258219457,1.706664947,-0.666198269
361091.9055,0.150527954,-2.371765137,-1.98374939,361091.9025,4.11205761,0.560803669,0.468559758
361091.9356,0.177642822,-1.850448608,-2.833496094,361091.9025,4.11205761,0.560803669,0.468559758
361091.9657,0.434127808,-1.165008545,-3.376846313,361091.9376,4.254395048,0.995585756,0.025111745
361091.9958,0.179290771,-0.224365234,-2.689407349,361091.9727,2.170416634,1.109406331,-1.858674986
361092.0259,-0.333282471,0.447219849,-1.863952637,361092.0078,-0.270814721,1.298184239,-3.142138868
361092.056,-0.696670532,0.907287598,-0.511703491,361092.0429,-2.602430365,0.902166858,-2.731594476
361092.0861,-0.855453491,0.774215698,0.359909058,361092.078,-3.451429608,-0.909906004,-1.233685673
361092.1161,-0.682128906,0.465286255,0.507537842,361092.1131,-3.479205846,-2.54372737,-0.019355322
361092.1462,-0.717895508,-0.235687256,0.39692688,361092.1131,-3.479205846,-2.54372737,-0.019355322
361092.1763,-0.114562988,-1.076019287,0.436309814,361092.1482,-3.351378907,-3.265350548,1.574314096
361092.2064,0.385116577,-1.780044556,0.781417847,361092.1833,-2.593790537,-3.3330505,3.054209545
361092.2365,0.39831543,-2.026931763,1.589065552,361092.2185,-0.470010116,-2.393273416,2.365085986
361092.2666,0.162322998,-5.388626099,-1.696533203,361092.2535,1.461651996,0.855797495,1.144055921
361092.2967,-0.321502686,-0.168258667,-1.054733276,361092.2886,-2.792359557,1.415486897,-0.839367389
361092.3268,0.094360352,-0.253067017,-0.990249634,361092.3237,-1.272507371,0.139086784,0.008100803
361092.3569,-0.177261353,-0.247970581,-0.94972229,361092.3237,-1.272507371,0.139086784,0.008100803
361092.3869,0.005065918,-0.619491577,-0.855804443,361092.3589,-0.26690307,0.269097248,-0.322644896
361092.417,-0.085906982,-0.357070923,-0.951370239,361092.394,-0.40768895,0.226200115,-0.115518607
361092.4472,-0.048202515,-0.42199707,-0.941085815,361092.4291,0.122809543,0.157471916,-0.129219506
361092.4772,-0.070510864,-0.294311523,-0.998458862,361092.4642,0.90320629,0.189463405,-0.129290346
361092.5073,-0.044570923,-0.213806152,-0.989990234,361092.4993,2.490753367,0.593510216,-0.425286852
361092.5374,0.021621704,-0.410690308,-1.182312012,361092.5344,4.659896477,-0.034423488,-0.553078904
361092.5675,0.159072876,-0.927230835,-1.06640625,361092.5344,4.659896477,-0.034423488,-0.553078904
361092.5976,0.115844727,-4.366394043,-1.07220459,361092.5695,5.419975968,-1.498444632,-0.782621019
361092.6277,0.089752197,-1.547088623,0.615203857,361092.6046,1.262598814,0.844936059,-0.73058152
361092.6578,0.317642212,-2.391860962,-2.101669312,361092.6397,3.883545605,0.997814022,0.010497648
361092.6879,0.226028442,-1.795578003,-2.758148193,361092.6748,3.089923067,0.453149643,-0.336217696
361092.718,0.003189087,-0.914550781,-2.686035156,361092.7099,1.758822424,0.897163844,-1.350335324
361092.7481,-0.168441772,-0.032363892,-2.363525391,361092.745,-0.342996506,1.038473302,-1.851709488
361092.7781,-0.483688354,0.601333618,-1.61050415,361092.745,-0.342996506,1.038473302,-1.851709488
361092.8082,-0.374969482,0.86680603,-0.267120361,361092.7802,-2.985954324,0.548701466,-1.162524943
361092.8383,-0.34375,0.924468994,0.844772339,361092.8152,-3.855035933,-0.947839272,0.020846692
361092.8684,-0.189422607,0.23600769,0.083602905,361092.8504,-3.015286913,-1.821302047,0.819646149
361092.8985,-0.198806763,-0.68170166,-0.046875,361092.8854,-4.165018296,-2.559548411,1.34619038
361092.9286,0.136703491,-1.031997681,0.726043701,361092.9206,-3.475623362,-2.590413915,2.201309036
361092.9587,0.342941284,-1.869995117,0.710830688,361092.9557,-1.657015634,-1.86278158,1.837399525
361092.9888,0.625579834,-1.692489624,1.750228882,361092.9557,-1.657015634,-1.86278158,1.837399525
361093.0189,-0.933853149,-5.60774231,-2.05909729,361092.9908,1.025144979,-1.569599236,0.863655418
361093.049,-0.266967773,-0.779922485,-1.231246948,361093.0259,-2.265651274,1.007646147,-0.970229799
361093.0791,0.135238647,-0.249221802,-0.951644897,361093.061,-0.655131237,0.235912663,-0.063817063
361093.1091,-0.007980347,-0.428390503,-0.838165283,361093.0961,0.095177116,0.078067105,-0.015787485
361093.1392,-0.12046814,-0.627487183,-0.764419556,361093.1312,-0.567689538,-0.001079912,0.118538632
361093.1693,-0.138519287,-0.336746216,-0.935562134,361093.1663,-0.374745115,0.270437883,-0.219413847
361093.1994,-0.018981934,-0.421325684,-0.96421814,361093.1663,-0.374745115,0.270437883,-0.219413847
361093.2295,-0.089035034,-0.384887695,-0.972000122,361093.2014,0.370034516,0.128968636,-0.035059184
361093.2596,-0.081634521,-0.277282715,-0.981506348,361093.2365,1.342062214,0.453600516,-0.112079401
361093.2897,0.04006958,-0.32850647,-1.15826416,361093.2717,3.099361843,0.440292966,-0.313788021
361093.3198,0.131057739,-0.81199646,-1.262573242,361093.3067,5.386314677,-1.51816241,-0.009766611
361093.3499,-0.601226807,-3.894515991,-0.35760498,361093.3419,3.86754267,-0.325153061,0.341845754
361093.38,0.666793823,-1.408950806,0.255004883,361093.3769,2.118918022,0.537001933,0.27247387
361093.4101,0.649642944,-1.787338257,-1.166519165,361093.3769,2.118918022,0.537001933,0.27247387
361093.4401,0.047653198,-2.126068115,-2.289306641,361093.4121,3.244609051,-1.136032882,-1.700575629
361093.4702,-0.417068481,-1.334289551,-2.406814575,361093.4472,2.575095147,-0.22186289,-3.126913576
361093.5003,-0.979415894,-0.893356323,-2.958282471,361093.4823,1.463515143,1.936167914,-3.511481494
361093.5305,-1.132720947,0.258621216,-1.876358032,361093.5174,-1.378853785,2.486832395,-1.625166625
361093.5605,-0.744171143,0.809967041,-0.459472656,361093.5525,-2.695840207,0.768825312,0.419746678
361093.5906,-0.554077148,0.725448608,0.246429443,361093.5876,-3.276897749,-0.141681235,1.458853546
361093.6207,-0.219848633,0.50100708,0.37210083,361093.5876,-3.276897749,-0.141681235,1.458853546
361093.6508,-0.434768677,-0.196228027,0.36000061,361093.6227,-3.782512197,-1.453714178,1.665700735
361093.6809,-0.380737305,-0.955764771,0.447219849,361093.6578,-4.432665986,-1.194033867,1.757515611
361093.711,-0.185134888,-1.389328003,0.851501465,361093.6929,-3.481241566,-2.045787352,3.210492093
361093.7411,0.499023438,-1.965652466,0.953781128,361093.728,-1.698402756,-1.466455539,2.213073284
361093.7712,-0.646713257,-6.727142334,-1.505752563,361093.7631,-1.802761386,6.529334363,-2.700728706
361093.8013,-0.847366333,0.152740479,-1.100860596,361093.7982,-1.469123761,0.702392226,-0.569596894
361093.8314,-0.011810303,-0.441421509,-0.930740356,361093.7982,-1.469123761,0.702392226,-0.569596894
361093.8614,-0.322052002,-0.536254883,-0.839385986,361093.8334,-0.179103442,-0.248123523,0.577822333
361093.8915,-0.038208008,-0.676376343,-0.857299805,361093.8684,-0.455577913,0.146264003,-0.126923594
361093.9216,-0.1300354,-0.339767456,-0.956893921,361093.9036,-0.714628918,0.315355557,-0.23676301
361093.9517,-0.004837036,-0.323883057,-0.985534668,361093.9387,-0.026641731,0.236023983,-0.166796176
361093.9818,-0.060028076,-0.2265625,-1.022735596,361093.9738,1.073832891,0.144960386,-0.074342408
361094.0119,-0.058013916,-0.072052002,-0.996658325,361094.0088,2.940379115,0.686722452,-0.507532191
361094.042,0.251144409,-0.421691895,-1.313842773,361094.0088,2.940379115,0.686722452,-0.507532191
361094.0721,-0.127120972,-1.342407227,-0.917984009,361094.044,5.56914761,-1.323708241,-0.04343669
361094.1022,-0.505508423,-4.05267334,-1.908187866,361094.0791,5.220513725,-0.707152094,-0.488396313
361094.1323,0.285736084,-1.878463745,-0.149597168,361094.1142,2.902101501,1.356744754,0.308893663
361094.1623,0.398925781,-2.324325562,-2.4349823,361094.1493,4.004862713,-0.008605472,0.35598714
361094.1925,0.534286499,-1.502166748,-2.887252808,361094.1844,3.766740957,0.573587375,-1.313841762
361094.2225,0.097259521,-0.658706665,-3.087310791,361094.2195,1.349067393,1.620743114,-2.623221397
361094.2526,-0.491363525,0.371185303,-2.29864502,361094.2195,1.349067393,1.620743114,-2.623221397
361094.2827,-0.867218018,0.999588013,-0.938598633,361094.2547,-1.441911581,2.118205094,-2.516325839
361094.3128,-0.98588562,1.190109253,0.315002441,361094.2897,-3.354448467,0.888276343,-1.137751686
361094.3429,-0.849700928,0.745803833,0.276870728,361094.3249,-3.670696183,-0.729204133,0.053302903
361094.373,-0.696182251,-0.258392334,0.217575073,361094.3599,-4.69563024,-1.222674833,0.453042584
361094.4031,-0.156784058,-0.9090271,0.704727173,361094.3951,-3.982802151,-3.128989776,1.86193869
361094.4332,-0.008270264,-1.775466919,0.871124268,361094.4302,-2.488861458,-1.711202973,1.94078983
361094.4633,0.671920776,-1.816711426,1.395263672,361094.4302,-2.488861458,-1.711202973,1.94078983
361094.4934,-0.212341309,-1.704589844,1.20072937,361094.4653,-0.19345575,-2.357679469,0.85462384
361094.5234,2.287216187,-1.600036621,-0.808105469,361094.5004,-2.523249792,4.902421503,-2.681396819
361094.5535,0.579864502,-0.242797852,-1.130264282,361094.5355,-2.697824795,0.428144158,-0.490911669
361094.5837,0.001876831,-0.075775146,-1.015563965,361094.5706,-0.06301625,-0.265025009,0.392618654
361094.6138,-0.161499023,-0.687301636,-0.765945435,361094.6057,0.119511484,-0.070674969,0.155507835
361094.6438,-0.215789795,-0.432601929,-0.869735718,361094.6408,-0.346003748,0.22356758,-0.197945307
361094.6739,-0.060623169,-0.446136475,-0.888549805,361094.6408,-0.346003748,0.22356758,-0.197945307
361094.704,-0.049942017,-0.406021118,-0.931671143,361094.6759,-0.091752824,0.254011506,-0.18128537
361094.7341,-0.057479858,-0.44090271,-0.920974731,361094.711,0.358710222,0.178182255,-0.091483046
361094.7642,-0.092773438,-0.327636719,-0.958297729,361094.7461,0.878031428,0.389413806,-0.09700298
361094.7943,0.020263672,-0.317153931,-1.021469116,361094.7812,2.221387939,0.568779037,-0.307886722
361094.8244,0.156494141,-0.47114563,-1.212844849,361094.8164,4.314515909,-0.466026559,-0.001022654
361094.8545,-0.285415649,-1.22265625,-1.010467529,361094.8514,5.212946086,-1.163340403,-0.167123745
361094.8846,-0.915863037,-4.27671814,-1.80065918,361094.8514,5.212946086,-1.163340403,-0.167123745
361094.9147,0.470413208,-2.240600586,-0.845748901,361094.8866,1.962170752,0.199887018,0.994057634
361094.9447,0.164871216,-2.2631073,-2.595779419,361094.9216,4.144125798,-1.378675619,-0.518986447
361094.9748,0.250442505,-1.359909058,-3.160354614,361094.9568,3.689247763,0.645338527,-2.573421882
361095.0049,-0.255279541,-0.190811157,-2.763916016,361094.9919,1.607263524,1.134448035,-3.43460855
361095.035,-0.924591064,0.794967651,-1.850280762,361095.027,-0.910542234,1.676423954,-2.446998962
361095.0651,-0.863220215,1.260040283,-0.593704224,361095.0621,-2.73030524,-0.127943319,0.001276453
361095.0952,-0.692718506,0.908401489,-0.069839478,361095.0621,-2.73030524,-0.127943319,0.001276453
361095.1253,0.019348145,0.637008667,0.498138428,361095.0972,-4.1998093,-1.236058283,1.550053498
361095.1554,0.112472534,-0.207046509,1.013000488,361095.1323,-4.189290346,-2.538081202,1.070130298
361095.1855,-0.134140015,-1.508300781,0.258544922,361095.1674,-3.489870208,-2.429897473,0.67106919
361095.2156,0.733932495,-1.573654175,1.3334198,361095.2025,-3.232763843,-1.657095263,1.31735314
361095.2457,0.854782104,-1.379211426,2.032531738,361095.2376,0.202001301,-1.51246937,-0.220750488
361095.2758,-1.812652588,-6.728622437,-4.851760864,361095.2727,-4.235808314,4.251517502,-0.691818677
361095.3058,-0.9637146,0.283157349,-1.391281128,361095.2727,-4.235808314,4.251517502,-0.691818677
361095.3359,0.023010254,-0.03817749,-1.085159302,361095.3079,-2.26674104,0.190726543,-0.24097187
361095.366,-0.079925537,-0.472717285,-0.881393433,361095.3429,4.79E-05,-0.054880293,0.12232325
361095.3961,0.0050354,-0.679580688,-0.783096313,361095.3781,0.068049625,-0.060239106,0.16990009
361095.4262,-0.259185791,-0.497879028,-0.852630615,361095.4131,-0.291704024,-0.059898488,0.110664197
361095.4563,-0.03742981,-0.438461304,-0.913696289,361095.4483,-0.092395178,0.144983821,-0.092151499
361095.4864,-0.093429565,-0.349273682,-0.957305908,361095.4834,0.833478874,0.376686027,-0.133732232
361095.5165,-0.039749146,-0.326660156,-0.993484497,361095.4834,0.833478874,0.376686027,-0.133732232
361095.5466,0.005477905,-0.367141724,-1.074813843,361095.5185,2.207441497,0.278317112,-0.136363702
361095.5767,0.073516846,-0.823120117,-1.143112183,361095.5536,4.148475272,-0.730365005,-0.039811595
361095.6067,0.38331604,-2.412765503,1.056442261,361095.5887,4.943813951,-1.980622464,-0.420642832
361095.6369,-0.44480896,-3.576095581,-0.500198364,361095.6238,3.444362112,-0.456173928,-2.149060212
361095.667,-0.553741455,-3.173355103,-1.837249756,361095.6589,4.225463531,-0.351017947,-1.408647101
361095.6971,-0.549728394,-1.951812744,-2.861831665,361095.694,3.10763735,1.694466337,-0.962831005
361095.7271,0.067764282,-0.022506714,-2.936004639,361095.694,3.10763735,1.694466337,-0.962831005
361095.7572,0.017913818,0.729248047,-2.969665527,361095.7291,2.981644796,1.075327723,-1.828791922
361095.7873,-0.438247681,1.328979492,-1.806121826,361095.7642,0.426345992,0.52226107,-2.789789873
361095.8174,-0.742156982,1.220718384,-1.173187256,361095.7993,-1.509763066,-1.157433512,-1.331876422
361095.8475,-0.227920532,0.967910767,-0.544006348,361095.8344,-3.552795379,-2.177956575,0.494346614
361095.8776,0.226104736,0.454498291,-0.631164551,361095.8696,-4.524952507,-3.836813786,1.04131596
361095.9077,0.32711792,-0.008346558,-0.849365234,361095.9046,-5.277739198,-4.863625638,1.58082446
361095.9378,0.59475708,-0.703155518,-1.533615112,361095.9046,-5.277739198,-4.863625638,1.58082446
361095.9679,1.10647583,-1.36265564,-1.15411377,361095.9398,-6.607385755,-4.819110367,1.063991179
361095.998,1.106338501,-1.974578857,-0.024795532,361095.9749,-5.989507881,-4.246935533,-0.684044644
361096.028,0.944900513,-2.434555054,1.688873291,361096.01,-1.862450816,-4.010504087,-2.53932117
361096.0581,-0.004837036,-6.884811401,-1.371307373,361096.0451,-0.147143911,6.771939816,-7.321919865
361096.0882,-0.338104248,0.16645813,-0.209747314,361096.0802,-1.524720977,0.202716094,-3.691424631
361096.1183,0.067901611,-0.217880249,-0.894592285,361096.1153,-1.007437089,0.492497581,-0.042316298
361096.1484,0.104324341,-0.316696167,-0.93510437,361096.1153,-1.007437089,0.492497581,-0.042316298
361096.1785,0.032806396,-0.388549805,-0.920928955,361096.1504,-0.029952573,0.075058532,-0.128973163
361096.2086,-0.058761597,-0.436096191,-0.911270142,361096.1855,0.257525014,-0.180495743,0.043751476
361096.2387,-0.073928833,-0.397689819,-0.921844482,361096.2206,0.415481892,-0.183392996,0.074191673
361096.2688,-0.114257813,-0.359268188,-0.932266235,361096.2557,0.893746742,-0.036940974,0.008390289
361096.2989,-0.113143921,-0.39630127,-0.953811646,361096.2909,1.622315711,0.231252131,-0.210936473
361096.329,-0.024658203,-0.391021729,-0.996826172,361096.326,2.654553753,-0.470422107,-0.276562621
361096.3591,0.067810059,-0.568115234,-1.195877075,361096.326,2.654553753,-0.470422107,-0.276562621
361096.3892,-0.019927979,-0.992507935,-1.17880249,361096.3611,4.729417765,-2.886530531,-1.039178241
361096.4192,-0.132446289,-2.003189087,-3.358840942,361096.3961,5.798806905,-4.423709242,-0.701118702
361096.4493,1.431869507,0.384170532,-1.82472229,361096.4313,1.412449562,-2.090317803,-2.050057731
361096.4794,0.782836914,0.404663086,-1.455093384,361096.4664,0.888334666,-2.160495027,-4.858200246
361096.5095,0.00843811,0.475601196,-1.557998657,361096.5015,-0.31173206,-1.625004438,-4.648950885
361096.5396,-0.594696045,0.320129395,-1.844558716,361096.5366,-2.725292638,-2.146856446,-1.767529097
361096.5697,0.320068359,0.024795532,-1.299438477,361096.5366,-2.725292638,-2.146856446,-1.767529097
361096.5998,1.128738403,-0.061569214,-0.845611572,361096.5717,-4.455889816,-3.115557324,-0.809070203
361096.6299,0.438339233,-0.70451355,-1.498458862,361096.6068,-4.320864353,-3.810548626,-1.917442695
361096.66,1.211120605,-0.831085205,-1.070465088,361096.6419,-5.081095644,-3.078771613,-1.076604975
361096.6901,1.050872803,-1.895080566,-0.045669556,361096.677,-3.476431897,-2.779487966,-1.95002727
361096.7202,0.914398193,-2.379669189,2.234085083,361096.7122,1.232269137,-3.447484402,-2.239281718
361096.7503,0.651367188,-3.888671875,1.948760986,361096.7472,5.014778139,-3.749010163,-0.413503164
361096.7804,1.63041687,-3.13180542,-0.473587036,361096.7472,5.014778139,-3.749010163,-0.413503164
361096.8105,-0.090606689,-1.268936157,-0.996246338,361096.7823,-2.438125043,1.125764532,-0.832189371
361096.8405,-0.661651611,-0.284683228,-1.038574219,361096.8174,-2.624233664,0.340765843,0.017672737
361096.8706,0.200454712,-0.052490234,-0.951171875,361096.8526,-1.120464309,1.30234596,-0.91980311
361096.9007,-0.051971436,-0.333831787,-0.8956604,361096.8877,0.155389058,-0.083552418,-0.027346936
361096.9308,0.011672974,-0.462234497,-0.914047241,361096.9228,0.232907818,-0.147546315,0.041457162
361096.9609,-0.078964233,-0.429489136,-0.930526733,361096.9579,0.448505622,-0.24090396,0.09673906
361096.991,-0.075912476,-0.265518188,-0.990890503,361096.9579,0.448505622,-0.24090396,0.09673906
361097.0211,-0.08366394,-0.10647583,-1.144332886,361096.993,1.465974306,0.018576348,0.089241197
361097.0512,0.199188232,-0.272094727,-1.427185059,361097.0281,4.111175571,-0.501365109,0.146875465
361097.0813,0.021392822,-1.317428589,-1.264068604,361097.0632,6.621827545,-4.336433192,0.017321732
361097.1114,0.469787598,-3.451095581,-1.152359009,361097.0983,5.503691372,-4.486912979,-2.821919047
361097.1414,-0.427368164,-1.933639526,-0.213623047,361097.1334,2.450360138,-2.545428864,-3.141650977
361097.1715,-1.051376343,-2.578689575,-1.80897522,361097.1685,4.004260305,-0.93069464,-1.443652489
361097.2016,-0.177398682,-2.056030273,-2.927902222,361097.1685,4.004260305,-0.93069464,-1.443652489
361097.2317,0.211761475,-0.827270508,-2.836471558,361097.2036,2.458835382,-0.418232671,-0.395662914
361097.2618,0.936569214,0.180267334,-2.088150024,361097.2387,-0.251011987,0.894842633,-1.595530435
361097.2919,0.447128296,0.6587677,-0.758575439,361097.2738,-2.836159502,-0.15784609,-3.196360029
361097.322,-0.134063721,0.669281006,-0.117477417,361097.3089,-4.36274043,0.248185841,-3.273252414
361097.3521,-0.789215088,0.255584717,0.12902832,361097.344,-5.705909987,-0.708617099,-2.125280314
361097.3822,-0.681091309,-0.163253784,1.094802856,361097.3791,-5.378125457,-2.659897919,-0.215776502
361097.4123,-0.845275879,-1.243591309,1.367919922,361097.3791,-5.378125457,-2.659897919,-0.215776502
361097.4423,0.82711792,-1.752883911,1.683761597,361097.4143,-4.037701087,-1.997194783,1.837073287
361097.4724,0.837020874,-2.058532715,1.709594727,361097.4493,-2.176592504,-2.366278283,0.376435157
361097.5025,-0.208724976,-2.111236572,1.383956909,361097.4845,0.712412636,-2.458778656,0.477378283
361097.5326,1.045135498,1.070968628,-1.242752075,361097.5196,-3.696431907,-0.090085419,0.432007073
361097.5627,-0.208129883,0.320922852,-0.749664307,361097.5547,-0.671428185,0.449967964,-0.307257151
361097.5928,-0.052200317,-0.475036621,-0.90473938,361097.5898,0.313847676,-0.028139493,0.056530388
361097.6229,-0.157836914,-0.484664917,-0.862823486,361097.5898,0.313847676,-0.028139493,0.056530388
361097.653,-0.013275146,-0.503067017,-0.920883179,361097.6249,-0.173338231,0.270657594,-0.146959621
361097.6831,-0.069580078,-0.29548645,-0.89881897,361097.66,-0.265274813,0.128121218,-0.005648298
361097.7132,-0.037155151,-0.438674927,-0.917800903,361097.6951,0.216363196,0.087128511,-0.05919781
361097.7432,-0.074752808,-0.393936157,-0.917327881,361097.7302,0.287114864,0.115131383,-0.084983867
361097.7734,-0.007064819,-0.300704956,-1.000350952,361097.7653,0.775999335,-0.023998544,-0.096147306
361097.8035,-0.175827026,0.054122925,-1.045272827,361097.8004,3.082769284,0.558347435,-0.746046496
361097.8335,0.447570801,-0.601913452,-1.472717285,361097.8004,3.082769284,0.558347435,-0.746046496
361097.8636,-0.518997192,-2.996261597,0.560882568,361097.8355,5.847867126,-2.342680013,-0.553718595
361097.8937,-0.324310303,-2.329803467,-0.204147339,361097.8706,2.416756371,0.584658668,-0.398412628
361097.9238,0.197463989,-2.62159729,-1.990341187,361097.9058,3.493850569,-0.287016061,0.162216604
361097.9539,0.109313965,-1.907577515,-3.388336182,361097.9408,3.738967916,1.230982032,-1.423992501
361097.984,0.332229614,-0.54006958,-3.558898926,361097.976,3.092810467,2.36295599,-2.511781421
361098.0141,-0.452194214,0.3621521,-2.78704834,361098.011,0.626741407,2.854263138,-2.037156846
361098.0442,-0.686843872,1.107543945,-1.442459106,361098.011,0.626741407,2.854263138,-2.037156846
361098.0743,-0.605453491,1.242263794,-0.264373779,361098.0462,-1.696542804,1.840281864,0.041713891
361098.1044,-0.367950439,1.03163147,0.294006348,361098.0813,-3.487895208,0.72653245,1.240866088
361098.1345,-0.233627319,0.796829224,0.738098145,361098.1164,-4.599358565,-0.247767458,-0.305608121
361098.1645,-1.126312256,-0.724075317,0.113616943,361098.1515,-5.213526123,-1.912435154,-0.570703171
361098.1947,-0.543182373,-1.421264648,1.177490234,361098.1866,-4.242076862,-3.056031946,2.26732294
361098.2248,0.49407959,-1.563964844,2.478408813,361098.2217,-0.072276061,-1.067523596,1.670367393
361098.2548,0.830780029,-1.970108032,1.116088867,361098.2217,-0.072276061,-1.067523596,1.670367393
361098.2849,0.488143921,0.809738159,-1.471435547,361098.2569,-4.390967275,1.653309579,-0.963338337
361098.315,-0.298736572,0.006118774,-1.099182129,361098.2919,-1.583774443,-0.31911168,0.575353583
361098.3451,0.157028198,-0.547332764,-0.882476807,361098.3271,-0.129848278,0.139590121,-0.324763973
361098.3752,-0.226074219,-0.418136597,-0.841049194,361098.3621,-0.270181954,-0.0432769,0.211065636
361098.4053,-0.02394104,-0.392074585,-0.919845581,361098.3973,-0.18275943,0.207867713,-0.158966216
361098.4354,-0.045547485,-0.351974487,-0.975479126,361098.4324,0.509599603,0.103024653,-0.095420263
361098.4655,-0.057098389,-0.29006958,-1.024261475,361098.4324,0.509599603,0.103024653,-0.095420263
361098.4956,0.040313721,-0.299438477,-1.112136841,361098.4675,1.854435766,0.51647482,-0.271498088
361098.5257,0.001693726,-0.82069397,-1.354049683,361098.5026,4.244922716,-0.202011688,-0.032924394
361098.5557,-0.43522644,-4.423553467,0.583755493,361098.5377,5.799489207,-0.463452348,-0.119323998
361098.5858,0.552093506,-2.053268433,0.691680908,361098.5728,2.688734361,1.071316736,0.423976311
361098.6159,0.527328491,-2.831848145,-2.148788452,361098.6079,5.206632797,-0.457218953,-0.887209214
361098.646,0.578308105,-2.509414673,-2.962615967,361098.643,5.726840835,0.431966859,-2.407399088
361098.6761,0.000991821,-1.375289917,-3.805084229,361098.643,5.726840835,0.431966859,-2.407399088
361098.7062,-0.379089355,0.182418823,-3.032836914,361098.6781,2.97110507,1.851848505,-2.803272925
361098.7363,-0.654449463,0.979507446,-1.894470215,361098.7132,-0.15405801,1.503885736,-1.539398989
361098.7664,-0.680175781,1.381134033,-0.581741333,361098.7483,-3.224630549,0.543290721,0.29198259
361098.7965,-0.29107666,1.429107666,0.318054199,361098.7834,-4.905539532,-0.26567189,1.049083336
361098.8266,0.233642578,0.83782959,0.268432617,361098.8186,-5.459862665,-1.767372236,-0.545209263
361098.8567,-0.65447998,-0.674087524,0.231002808,361098.8536,-6.179718303,-1.956937641,-1.187230822
361098.8868,-0.847244263,-1.177124023,1.321273804,361098.8536,-6.179718303,-1.956937641,-1.187230822
361098.9169,0.357955933,-1.723831177,1.292373657,361098.8888,-3.864460327,-2.132575778,1.972723794
361098.947,0.690490723,-1.659088135,2.143661499,361098.9239,-1.553195495,-1.872467497,1.469951471
361098.977,0.416351318,-7.093811035,-5.583404541,361098.959,1.89949006,-0.390685199,-0.021320735
361099.0071,-0.994644165,-0.026290894,-1.160583496,361098.9941,-2.179021307,-0.098389421,0.15638295
361099.0372,0.25680542,-0.351928711,-0.893798828,361099.0292,0.156331817,-0.111882327,0.109977634
361099.0673,-0.119598389,-0.669570923,-0.857467651,361099.0643,-0.291157543,-0.239749213,0.316759842
361099.0974,-0.131164551,-0.723831177,-0.832946777,361099.0643,-0.291157543,-0.239749213,0.316759842
361099.1275,-0.13381958,-0.132080078,-0.913986206,361099.0994,-1.11865549,0.041431862,0.035015775
361099.1576,0.020401001,-0.235809326,-0.959991455,361099.1345,-0.407588283,0.354683522,-0.266376296
361099.1877,-0.084228516,-0.377105713,-0.945800781,361099.1696,0.279467331,0.032974728,-0.053360161
361099.2178,-0.086791992,-0.288131714,-1.038497925,361099.2047,0.667343961,0.047297741,-0.151416154
361099.2479,-0.109146118,0.024978638,-1.099914551,361099.2398,2.504856403,0.719451903,-0.705946481
361099.278,0.405090332,-0.427825928,-1.441558838,361099.2749,5.962019265,-1.696359046,-0.039290681
361099.308,-0.278594971,-1.961761475,0.237472534,361099.2749,5.962019265,-1.696359046,-0.039290681
361099.3381,-0.214324951,-3.74786377,-0.815658569,361099.3101,6.323452303,-1.044405227,-1.697165717
361099.3682,0.345092773,-2.511199951,-0.829833984,361099.3451,3.792337664,1.284365096,-1.423260132
361099.3983,0.777770996,-2.910018921,-3.042449951,361099.3802,5.717384483,0.975185942,-1.327963706
361099.4284,0.472747803,-1.860733032,-3.878479004,361099.4153,4.352579406,1.976553953,-2.014834763
361099.4585,-0.21182251,-0.600753784,-3.682723999,361099.4505,1.336507926,2.25946262,-1.926972817
361099.4886,-0.886535645,0.470184326,-2.576309204,361099.4856,-2.019046286,2.260645597,-0.779544003
361099.5187,-0.96081543,1.03175354,-1.203430176,361099.4856,-2.019046286,2.260645597,-0.779544003
361099.5488,-0.746704102,1.403900146,0.399230957,361099.5207,-4.778324588,1.448294911,0.057603375
361099.5789,-0.891876221,0.654541016,0.341384888,361099.5558,-5.092696374,-0.282317712,-0.721062849
361099.6089,-1.466583252,-0.481216431,0.386505127,361099.5909,-5.895987784,-0.840943182,-0.822947137
361099.639,-0.651977539,-1.349731445,0.77331543,361099.626,-5.069090646,-1.923314699,2.267214017
361099.6691,0.790969849,-1.942932129,1.429153442,361099.6611,-3.386457533,-2.019856153,2.060194521
361099.6992,0.588531494,-2.288375854,2.150161743,361099.6962,0.722811747,-2.631249496,1.605992131
361099.7293,2.061035156,-7.154693604,-6.487319946,361099.6962,0.722811747,-2.631249496,1.605992131
361099.7594,0.723327637,0.255386353,-1.529556274,361099.7313,-4.585463255,0.258076289,1.03598298
361099.7895,-0.047698975,0.363082886,-1.012664795,361099.7664,-2.594809995,-0.028727519,0.490849351
361099.8196,0.315536499,-0.518676758,-1.02381897,361099.8015,0.256644573,0.561859346,-0.454622371
361099.8497,-0.099227905,-0.343566895,-0.938980103,361099.8366,-0.171625286,0.285357178,-0.102162055
361099.8798,-0.01713562,-0.416320801,-0.953933716,361099.8718,0.124180538,0.003630155,-0.018896992
361099.9099,-0.063873291,-0.296691895,-0.946304321,361099.9068,0.383706119,-0.091686245,0.026198048
361099.94,-0.090698242,-0.247909546,-1.011184692,361099.9068,0.383706119,-0.091686245,0.026198048
361099.9701,-0.193954468,-0.055877686,-1.080825806,361099.942,1.259442968,-0.064656491,0.005830459
361100.0002,0.266021729,-0.466506958,-1.396972656,361099.9771,3.520668068,0.443700214,-0.560635357
361100.0302,-0.453155518,-1.467483521,-0.136993408,361100.0122,5.970839655,-2.868830896,0.004130829
361100.0603,-0.57093811,-3.020080566,0.669677734,361100.0473,6.479696236,0.04635871,-0.350155616
361100.0904,0.165283203,-2.903701782,-1.141021729,361100.0824,5.230904847,1.01176872,0.331715622
361100.1205,0.541763306,-2.845352173,-1.800460815,361100.1175,6.391974905,-0.561179174,-0.7193278
361100.1506,0.280975342,-3.205490112,-3.716812134,361100.1175,6.391974905,-0.561179174,-0.7193278
361100.1807,0.094238281,-1.340805054,-3.609832764,361100.1526,3.472820651,1.191632229,-2.49207616
361100.2108,-0.430862427,0.214553833,-2.25642395,361100.1877,-0.35141103,1.873152462,-3.190261923
361100.2409,-0.968582153,0.722839355,-1.601516724,361100.2228,-2.790234354,1.853836022,-2.570965649
361100.271,-1.063430786,1.501037598,0.177032471,361100.2579,-4.932154099,0.511459022,-0.514577051
361100.3011,-0.816680908,1.723526001,1.129959106,361100.293,-4.286461638,-0.804486637,0.298916929
361100.3312,-0.94593811,0.317642212,0.300262451,361100.3281,-4.337097385,-2.070735047,0.549116653
361100.3612,-0.839263916,-1.00088501,0.515914917,361100.3281,-4.337097385,-2.070735047,0.549116653
361100.3913,0.296417236,-1.874984741,0.988632202,361100.3633,-4.077974474,-3.456179356,3.223281125
361100.4214,1.724533081,-1.464401245,2.132827759,361100.3983,-2.928252678,-2.197823491,2.138055232
361100.4515,-1.487213135,-6.542526245,-0.902374268,361100.4335,-4.453818942,0.140582948,-0.384892291
361100.4816,-0.016815186,-0.480148315,-1.30758667,361100.4685,-2.544675988,0.10886896,0.243629172
361100.5117,-0.175369263,-0.169204712,-0.984085083,361100.5037,-0.614351316,-0.01379837,0.078591482
361100.5418,-0.033508301,-0.549438477,-0.844009399,361100.5388,-0.150176719,0.220451948,-0.098932972
361100.5719,-0.161514282,-0.721008301,-0.791275024,361100.5388,-0.150176719,0.220451948,-0.098932972
361100.602,-0.046524048,-0.287017822,-0.976928711,361100.5739,-1.119313823,0.286784899,-0.288046172
361100.6321,0.042129517,-0.240402222,-1.019256592,361100.609,-0.389460145,0.384545814,-0.266092137
361100.6622,-0.059082031,-0.100219727,-1.06036377,361100.6441,0.976757473,0.203911853,0.011070761
361100.6922,0.127212524,-0.164627075,-1.222106934,361100.6792,3.32067053,0.194147639,0.081931086
361100.7223,0.356033325,-0.858322144,-1.503570557,361100.7143,6.55863233,-2.520150937,0.920018826
361100.7524,1.810028076,-3.926773071,2.048080444,361100.7494,5.226302904,-3.857686577,-2.751626774
361100.7825,-0.827575684,-2.434234619,0.579040527,361100.7494,5.226302904,-3.857686577,-2.751626774
361100.8126,-0.889770508,-3.531509399,-1.242431641,361100.7845,4.527240695,0.271777453,-3.916146159
361100.8427,-0.978973389,-3.535171509,-3.343215942,361100.8196,6.532198326,-0.979574298,-2.449902873
361100.8728,-0.15335083,-2.077301025,-4.838119507,361100.8547,5.128532402,1.932675444,-1.509252006
361100.9029,-0.071380615,0.114471436,-4.166229248,361100.8898,1.439952559,2.045321566,-1.388628119
361100.933,-0.646759033,1.298660278,-2.894302368,361100.925,-2.888378765,0.765379714,-0.9925383
361100.9631,-1.149581909,2.073318481,-0.989776611,361100.96,-6.005986989,-0.119013207,0.232518731
361100.9932,-1.329345703,1.67930603,-0.447845459,361100.96,-6.005986989,-0.119013207,0.232518731
361101.0233,-1.135940552,0.594009399,-0.57019043,361100.9952,-7.342672282,-1.215913067,1.514342105
361101.0534,0.848022461,-0.678817749,-0.982879639,361101.0303,-8.094008082,-1.619777452,2.265573776
361101.0834,0.757598877,-1.766860962,0.154708862,361101.0654,-8.132487031,-2.937589987,-1.435832383
361101.1135,0.121444702,-3.408630371,1.109634399,361101.1004,-4.577139812,-4.010983189,-1.562911772
361101.1436,0.794967651,-3.898956299,1.754089355,361101.1356,0.577601291,-1.577027857,0.819433096
361101.1737,1.989059448,-8.201599121,-3.518127441,361101.1707,-2.906943128,3.95624431,-2.539242873
361101.2038,-1.021026611,-1.475860596,-1.608383179,361101.1707,-2.906943128,3.95624431,-2.539242873
361101.2339,-0.482086182,-0.501312256,-0.90536499,361101.2058,0.753694296,-0.121008447,0.140842073
361101.264,-0.033508301,-0.493713379,-0.91394043,361101.2409,0.215572238,-0.040596695,-0.06917774
361101.2941,-0.06288147,-0.420776367,-0.910888672,361101.2761,0.043539488,-0.056508017,0.041835065
361101.3242,-0.01751709,-0.430267334,-0.908370972,361101.3111,0.220107068,-0.152895008,0.039173768
361101.3543,-0.055541992,-0.429946899,-0.900253296,361101.3463,0.294080096,-0.13822392,0.132674957
361101.3844,-0.070663452,-0.411178589,-0.903289795,361101.3813,0.473052511,-0.067168917,0.073028404
361101.4145,-0.080307007,-0.379852295,-0.922836304,361101.3813,0.473052511,-0.067168917,0.073028404
361101.4446,-0.023590088,-0.417175293,-0.933898926,361101.4165,0.933361796,0.004757737,-0.004906342
361101.4747,0.062286377,-0.457641602,-0.963409424,361101.4516,1.578125879,-0.200673449,0.136645198
361101.5047,0.19770813,-0.473220825,-1.06791687,361101.4867,2.390756995,-1.244795049,0.53202555
361101.5348,0.443267822,-0.70022583,-1.405654907,361101.5218,3.349566893,-3.382500874,1.256921753
361101.5649,0.318267822,-0.691345215,-1.645309448,361101.5569,4.006770601,-6.067467128,0.897975575
361101.595,1.346389771,-1.054733276,-3.089065552,361101.592,0.794399115,-2.147105186,-5.944518568
361101.6251,0.437362671,-0.050674438,-1.514053345,361101.592,0.794399115,-2.147105186,-5.944518568
361101.6552,-0.481018066,0.170562744,-1.103057861,361101.6271,-1.26723591,-1.825662441,-7.138309289
361101.6853,-0.429168701,0.321014404,-1.033081055,361101.6622,-2.153331923,-1.14226388,-5.372313907
361101.7154,-0.00402832,-0.043869019,-0.824829102,361101.6973,-3.153175806,-2.619382983,-2.968595307
361101.7455,0.845779419,-0.676116943,-1.073684692,361101.7324,-3.823509432,-3.721998519,-2.787377049
361101.7756,1.211730957,-1.246536255,-0.870330811,361101.7675,-4.846363027,-4.025983977,-3.954894087
361101.8057,1.149230957,-1.663742065,-0.22807312,361101.8026,-3.853998898,-3.402075907,-5.388816451
361101.8357,-0.629180908,-1.797271729,1.804458618,361101.8026,-3.853998898,-3.402075907,-5.388816451
361101.8658,-0.706588745,-2.837478638,0.608535767,361101.8378,1.357226254,-3.292246611,-1.894508351
361101.8959,5.172195435,-1.564331055,0.803359985,361101.8729,0.197591107,5.328781876,-2.748976396
361101.926,0.095565796,-0.38293457,-0.940444946,361101.908,-2.212615486,0.207213374,-0.318096216
361101.9561,0.182510376,0.155670166,-0.957626343,361101.943,-0.197766875,0.537124438,-0.44571463
361101.9862,0.080490112,-0.405563354,-0.897872925,361101.9782,0.334201683,-0.320085598,0.337057923
361102.0163,-0.071533203,-0.511535645,-0.893356323,361102.0133,0.071732777,-0.073270219,0.000546747
361102.0464,-0.062850952,-0.417892456,-0.904876709,361102.0133,0.071732777,-0.073270219,0.000546747
361102.0765,-0.037536621,-0.377197266,-0.918075562,361102.0484,0.050325755,-0.06801527,0.00246369
361102.1066,-0.07421875,-0.377853394,-0.917205811,361102.0835,0.316433072,-0.204782973,0.035787825
361102.1367,-0.053436279,-0.359771729,-0.938522339,361102.1186,0.693124425,-0.180094937,-0.00910082
361102.1668,0.046432495,-0.312316895,-1.014022827,361102.1537,1.548344281,-0.300840264,0.136024148
361102.1969,0.197296143,-0.335662842,-1.143768311,361102.1888,3.095635548,-1.595409262,0.788814999
361102.227,0.426681519,-0.63482666,-1.494735718,361102.2239,4.75766698,-4.914572975,1.6156642
361102.257,0.306640625,-0.948898315,-1.49508667,361102.2239,4.75766698,-4.914572975,1.6156642
361102.2871,-0.279098511,-3.138687134,-3.560241699,361102.259,6.152589214,-8.620858045,1.063421262
361102.3172,1.639633179,-1.359161377,-2.433517456,361102.2941,1.852749985,-0.967736015,-4.113607836
361102.3473,-0.469528198,-1.232757568,-2.324295044,361102.3293,1.801543789,-0.73585085,-7.24915751
361102.3774,-0.770950317,-0.374328613,-2.137420654,361102.3643,-0.359376545,1.664707909,-5.950691776
361102.4075,-0.623809814,0.162506104,-1.297393799,361102.3995,-2.776473268,0.774716491,-3.803218541
361102.4376,-0.710983276,0.096710205,-0.539123535,361102.4345,-5.176207246,-1.538976345,-2.519404187
361102.4677,-0.652069092,-0.152938843,-0.031814575,361102.4345,-5.176207246,-1.538976345,-2.519404187
361102.4978,-0.522521973,-0.769973755,0.047637939,361102.4697,-6.055502611,-3.15463948,-1.369519938
361102.5279,-0.618545532,-1.575485229,0.814620972,361102.5048,-6.145991498,-3.132817538,-1.53445057
361102.558,0.457015991,-1.852432251,2.080703735,361102.5399,-3.464815189,-2.947509463,0.941380041
361102.588,0.96031189,-3.051574707,1.704025269,361102.575,1.081520371,-2.094750102,0.269404577
361102.6181,0.378219604,-3.115890503,2.068313599,361102.6101,3.645351944,-1.086222182,1.514123992
361102.6482,1.761291504,0.934417725,1.371826172,361102.6452,-4.139189895,-0.967076083,-0.357173844
361102.6783,0.011383057,0.111450195,-1.236541748,361102.6452,-4.139189895,-0.967076083,-0.357173844
361102.7084,0.276321411,-0.364257813,-0.950195313,361102.6803,-0.35138866,0.5288476,-0.362174728
361102.7385,-0.070602417,-0.518600464,-0.893829346,361102.7154,0.490110058,-0.253622152,0.108862302
361102.7686,-0.025726318,-0.529998779,-0.890441895,361102.7505,0.080471673,0.087249418,-0.16503343
361102.7987,0.013244629,-0.425918579,-0.921875,361102.7856,0.167934145,-0.035715653,-0.003635748
361102.8288,-0.018676758,-0.440948486,-0.934799194,361102.8207,0.48335415,-0.217590647,0.140852193
361102.8589,-0.097061157,-0.344558716,-0.989471436,361102.8558,1.299360024,0.05975521,0.064149425
361102.8889,-0.043228149,-0.079315186,-0.998718262,361102.8558,1.299360024,0.05975521,0.064149425
361102.919,0.163421631,-0.520797729,-1.361724854,361102.891,3.350276359,0.228269923,-0.361802418
361102.9491,0.047714233,-1.90512085,-0.462341309,361102.9261,5.499873997,-2.60813885,-0.688188789
361102.9792,-0.622421265,-3.077285767,-0.615402222,361102.9612,3.288153333,-1.701598549,-2.762671702
361103.0093,-0.292602539,-1.957260132,-0.34236145,361102.9962,3.675344465,-0.153721653,-0.899489316
361103.0394,0.019943237,-2.591262817,-2.448501587,361103.0314,4.135724057,-0.19931284,0.45799846
361103.0695,0.433959961,-1.586730957,-2.87121582,361103.0665,3.572628472,1.959317175,-0.405324329
361103.0996,0.770858765,-0.852661133,-3.240310669,361103.0665,3.572628472,1.959317175,-0.405324329
361103.1297,0.240036011,-0.0209198,-2.508407593,361103.1016,1.18442172,0.600297815,-1.5064959
361103.1598,-0.12953186,0.481369019,-1.395446777,361103.1367,-1.696705789,0.584004862,-2.464036269
361103.1899,-0.43397522,0.687683105,0.012359619,361103.1718,-3.762345144,0.191920438,-2.503307242
361103.22,-0.50970459,0.359237671,0.376708984,361103.2069,-4.182822061,-0.994008365,-1.443075382
361103.2501,-0.303619385,0.136291504,0.730941772,361103.242,-4.095746281,-2.196271667,-0.231538954
361103.2802,-0.017730713,-0.429534912,0.559417725,361103.2771,-3.622518001,-2.644937611,0.359051639
361103.3102,0.173721313,-1.037704468,0.710327148,361103.2771,-3.622518001,-2.644937611,0.359051639
361103.3403,0.342086792,-1.407150269,1.024688721,361103.3122,-2.760066065,-1.845194863,0.618868836
361103.3704,0.404418945,-1.567749023,1.32081604,361103.3473,-1.301232759,-0.743102105,-0.337836099
361103.4005,-0.235610962,-1.006408691,1.677566528,361103.3825,1.869962528,-1.087383054,-0.189897234
361103.4306,-0.204742432,0.410552979,-0.683258057,361103.4175,-3.922922572,0.222701254,0.125903337
361103.4607,0.350540161,-0.071929932,-1.089309692,361103.4527,-0.693568641,-0.218160298,0.242219827
361103.4908,-0.082702637,-0.455947876,-0.885314941,361103.4877,0.192049601,-0.089737077,0.176463983
361103.5209,-0.121749878,-0.712966919,-0.746032715,361103.4877,0.192049601,-0.089737077,0.176463983
361103.551,-0.260818481,-0.433288574,-0.838012695,361103.5229,-0.700644127,-0.003785151,0.161842164
361103.5811,0.087036133,-0.340072632,-0.96446228,361103.558,-0.755017354,0.559945332,-0.421787459
361103.6112,0.02104187,-0.312286377,-0.976791382,361103.5931,0.142634647,0.097598995,-0.065281003
361103.6412,-0.099029541,-0.182678223,-1.028198242,361103.6282,1.349818405,-0.141386956,0.073668628
361103.6713,0.210968018,-0.145584106,-1.171707153,361103.6633,3.767646965,0.145923917,-0.039113581
361103.7014,0.363983154,-0.895629883,-1.494537354,361103.6984,6.437912836,-2.941286721,0.741711669
361103.7315,-0.226669312,-4.09286499,0.471069336,361103.6984,6.437912836,-2.941286721,0.741711669
361103.7616,0.87361145,-1.953079224,-0.216018677,361103.7335,3.162165573,1.076359431,0.087157007
361103.7917,0.62689209,-2.967498779,-2.690689087,361103.7686,4.709082932,-0.662239214,-1.281921113
361103.8218,-0.243850708,-1.929321289,-3.667144775,361103.8037,3.343248809,0.447502143,-2.821634089
361103.8519,-0.247528076,-0.470458984,-3.711776733,361103.8388,1.057072553,2.978019968,-3.186762795
361103.882,-1.024749756,0.6875,-2.217559814,361103.8739,-2.288729696,2.495136931,-2.567922721
361103.9121,-1.25668335,1.454879761,-0.199188232,361103.909,-3.609344941,0.757327647,-1.066317184
361103.9421,-1.279144287,1.100616455,0.165603638,361103.909,-3.609344941,0.757327647,-1.066317184
361103.9722,-1.131347656,0.243423462,0.333465576,361103.9442,-4.395829674,-1.122948772,0.030506244
361104.0023,-0.693634033,-0.522796631,1.007446289,361103.9792,-5.274198259,-1.82548614,1.04682098
361104.0324,-0.357040405,-1.249740601,1.04624939,361104.0144,-3.645973526,-3.055785071,2.792416016
361104.0625,0.243225098,-1.645584106,1.521682739,361104.0494,-1.559689347,-3.454800638,3.517585726
361104.0926,0.24887085,-1.461776733,1.880767822,361104.0846,1.834353401,-1.140104323,3.059231467
361104.1227,2.440673828,0.439743042,-0.900314331,361104.1197,-3.28602813,0.4764792,-0.476824878
361104.1528,0.611160278,-0.213119507,-1.131729126,361104.1197,-3.28602813,0.4764792,-0.476824878
361104.1829,-0.178146362,-0.407241821,-0.92640686,361104.1548,-0.411632559,0.330790174,-0.16956613
361104.213,-0.121734619,-0.572189331,-0.845901489,361104.1899,0.03225674,0.067317788,-0.031405061
361104.2431,-0.053405762,-0.420715332,-0.919067383,361104.225,-0.182391914,0.176598739,-0.075977589
361104.2732,-0.065994263,-0.368148804,-0.9246521,361104.2601,0.167814302,0.095286839,-0.01176265
361104.3033,-0.068588257,-0.243789673,-0.988494873,361104.2952,1.144619712,0.203322229,0.009670471
361104.3334,0.053787231,-0.147216797,-1.078872681,361104.3303,3.199907892,-0.048555552,-0.002107892
361104.3634,0.47013855,-0.621017456,-1.496658325,361104.3303,3.199907892,-0.048555552,-0.002107892
361104.3935,0.608856201,-2.610351563,1.125915527,361104.3654,5.695555617,-3.236042993,0.715833999
361104.4236,0.029968262,-2.509567261,0.328704834,361104.4005,3.468312985,-0.450162641,-1.604511414
361104.4537,0.32472229,-2.701461792,-0.986618042,361104.4356,4.743752496,0.710111665,-1.913283104
361104.4838,-0.059860229,-2.775497437,-2.917266846,361104.4707,4.466726751,-0.131801973,-2.591942304
361104.5139,-0.286346436,-1.690582275,-3.728286743,361104.5059,3.009732624,1.037035727,-3.397522701
361104.544,-1.003326416,-0.567321777,-3.474807739,361104.5409,-0.110194149,1.722752038,-2.765282665
361104.5741,-1.133880615,0.145889282,-2.665710449,361104.5409,-0.110194149,1.722752038,-2.765282665
361104.6042,-0.880737305,1.022094727,-0.390945435,361104.5761,-3.667859917,0.594167218,-0.596654611
361104.6343,-0.188934326,1.125030518,0.777893066,361104.6112,-4.545571765,-0.416592963,0.753183502
361104.6643,0.071792603,0.142654419,0.266784668,361104.6463,-4.115223043,-1.921700824,0.461406507
361104.6944,-0.277923584,-0.49256897,0.829315186,361104.6814,-4.548644521,-1.587313252,-0.256916748
361104.7245,-0.263809204,-1.190979004,0.855041504,361104.7165,-3.756151696,-1.263152219,1.912599737
361104.7546,0.371185303,-1.440994263,1.460906982,361104.7516,-1.616002421,-1.051284438,2.729659157
361104.7847,0.5234375,-1.864059448,1.433746338,361104.7516,-1.616002421,-1.051284438,2.729659157
361104.8148,0.003219604,-1.28225708,1.862686157,361104.7867,0.880965166,-1.781249436,2.305770731
361104.8449,1.160583496,-0.140289307,0.976882935,361104.8218,-4.795156831,4.765973912,-0.159435199
361104.875,-0.502410889,-0.595993042,-1.250305176,361104.8569,-3.045825913,0.601641113,-0.458964389
361104.9051,0.41368103,-0.177032471,-1.080307007,361104.892,0.317805666,0.13372877,-0.17193874
361104.9352,-0.199020386,-0.643722534,-0.822296143,361104.9271,0.15083665,-0.158861554,0.134274718
361104.9652,-0.026779175,-0.465362549,-0.842132568,361104.9622,-0.088638523,-0.081741735,0.121292873
361104.9953,-0.10383606,-0.333343506,-0.871994019,361104.9622,-0.088638523,-0.081741735,0.121292873
361105.0254,-0.050170898,-0.401916504,-0.896911621,361104.9974,0.033939325,0.131579066,-0.110011723
361105.0555,-0.072418213,-0.45640564,-0.884918213,361105.0324,0.258009177,0.065907644,-0.050295129
361105.0856,-0.040786743,-0.339950562,-0.948135376,361105.0676,0.448807625,0.126878853,0.003056776
361105.1157,-0.112197876,-0.106948853,-1.024032593,361105.1026,1.678440233,0.445307166,-0.186257226
361105.1458,0.223098755,-0.330154419,-1.312576294,361105.1378,4.402504089,-0.302578776,-0.063494554
361105.1759,-0.227615356,-1.301696777,-0.93989563,361105.1729,6.078951744,-1.1215341,0.059556005
361105.206,-0.799240112,-4.45123291,-1.424880981,361105.1729,6.078951744,-1.1215341,0.059556005
361105.2361,0.728485107,-2.207366943,-0.651611328,361105.208,2.009530811,2.688305059,0.551529476
361105.2662,0.13104248,-2.686264038,-2.988342285,361105.2431,4.698031879,-0.289231279,-0.234969904
361105.2963,0.33493042,-1.443832397,-3.518798828,361105.2782,4.075625566,1.752427109,-1.615861806
361105.3264,0.006378174,-0.407363892,-3.346221924,361105.3133,1.322460816,1.755499065,-2.540020516
361105.3565,-0.564880371,0.678482056,-1.880218506,361105.3484,-1.732041676,1.972321391,-2.684964656
361105.3866,-0.827041626,1.322128296,-0.313446045,361105.3835,-3.02660801,0.578913697,-1.045706181
361105.4166,-0.915939331,1.105163574,0.186782837,361105.3835,-3.02660801,0.578913697,-1.045706181
361105.4467,-0.100540161,0.802520752,0.522186279,361105.4186,-4.243558113,-0.462805199,0.346207213
361105.4768,-0.615356445,-0.549057007,0.562301636,361105.4537,-4.539077913,-2.464226951,-0.34466977
361105.5069,-0.610122681,-1.275527954,0.94102478,361105.4889,-4.472709276,-2.83874623,0.537891695
361105.537,-0.361160278,-1.653076172,1.62449646,361105.5239,-1.779062981,-3.423555367,3.535568987
361105.5671,0.45904541,-1.79737854,1.701324463,361105.5591,0.888273946,-2.238680377,3.349347448
361105.5972,1.47618103,-6.217926025,-4.49395752,361105.5941,-4.071328822,1.07389947,-0.510056069
361105.6273,0.402175903,-0.366516113,-1.300460815,361105.5941,-4.071328822,1.07389947,-0.510056069
361105.6574,-0.218276978,-0.293533325,-0.888946533,361105.6293,-1.04165285,0.161510067,0.130997698
361105.6875,0.091400146,-0.467468262,-0.84928894,361105.6644,-0.348774501,0.233379198,-0.248005811
361105.7176,-0.194610596,-0.406494141,-0.87298584,361105.6995,-0.377253813,0.100752977,0.086800676
361105.7476,-0.019241333,-0.425857544,-0.92048645,361105.7346,-0.122098479,0.178055222,-0.123258019
361105.7777,-0.075927734,-0.315536499,-0.96774292,361105.7697,0.593148825,0.077206638,0.00977753
361105.8078,-0.089447021,-0.180252075,-1.022567749,361105.8048,2.278319399,0.564817052,-0.337112518
361105.8379,0.041244507,-0.333938599,-1.253250122,361105.8048,2.278319399,0.564817052,-0.337112518
361105.868,-0.084075928,-0.964904785,-1.200134277,361105.8399,5.035282349,-0.473445327,-0.258543673
361105.8981,0.281784058,-4.571670532,-1.219482422,361105.875,6.192256998,0.053711165,-0.72387062
361105.9282,0.480773926,-1.893096924,0.342529297,361105.9101,2.609625693,-0.174274332,-0.559470757
361105.9583,0.037658691,-2.905380249,-2.46144104,361105.9452,4.493739194,-0.840469139,-1.320977968
361105.9884,-0.480728149,-1.815139771,-3.26449585,361105.9803,3.144595101,0.481198854,-0.831891896
361106.0185,-0.235168457,-0.372192383,-3.194534302,361106.0154,1.67016153,2.679939005,-0.582216549
361106.0485,-0.252334595,0.659790039,-2.56010437,361106.0154,1.67016153,2.679939005,-0.582216549
361106.0786,-0.262008667,1.2059021,-1.425064087,361106.0506,-1.315493987,2.01375778,-0.392511595
361106.1087,-0.507904053,1.451461792,0.507705688,361106.0856,-4.113506902,0.275916538,-0.207227222
361106.1388,-0.500991821,0.874359131,0.856063843,361106.1208,-3.945037462,-1.1266495,-0.04669347
361106.1689,-0.605621338,-0.436401367,0.137756348,361106.1558,-4.795599449,-1.040350564,-0.109858591
361106.199,-0.121368408,-0.989028931,1.342102051,361106.191,-4.450110224,-2.613826031,0.722012266
361106.2291,0.548995972,-2.398696899,1.286865234,361106.2261,-1.9334182,-1.359887018,-0.198413224
361106.2592,0.612365723,-1.997558594,1.637451172,361106.2261,-1.9334182,-1.359887018,-0.198413224
361106.2893,-0.03288269,-3.162063599,-0.319396973,361106.2612,1.096161898,-1.426536885,-0.753063926
361106.3194,0.162445068,-0.685455322,-1.050125122,361106.2963,-2.379686767,-0.203766711,0.256168134
361106.3495,-0.148971558,-0.233337402,-0.950775146,361106.3314,-0.715587656,-0.237232259,0.434712578
361106.3796,-0.000289917,-0.538665771,-0.833450317,361106.3665,-0.014630342,0.089644399,-0.052076784
361106.4097,-0.165237427,-0.56022644,-0.795196533,361106.4016,-0.379744934,-0.111488712,0.160691678
361106.4398,-0.143875122,-0.434783936,-0.888641357,361106.4367,-0.302453074,0.156970976,-0.274368443
361106.4699,-0.024887085,-0.395751953,-0.931945801,361106.4367,-0.302453074,0.156970976,-0.274368443
361106.4999,-0.097671509,-0.348297119,-0.959442139,361106.4718,0.405586118,0.163308766,-0.070788952
361106.53,-0.094436646,-0.247497559,-1.050308228,361106.5069,1.548023104,0.547244983,-0.204387494
361106.5601,0.151382446,-0.517623901,-1.249633789,361106.5421,3.869934721,-0.081891138,-0.43812462
361106.5902,0.025558472,-0.955581665,-0.904037476,361106.5772,5.925317177,-3.721963366,-1.092804984
361106.6203,-0.209014893,-3.598358154,2.172668457,361106.6123,6.139283528,-1.948619257,-1.755121429
361106.6504,-0.297714233,-2.309890747,0.526733398,361106.6473,4.581575573,1.371885624,-1.227087425
361106.6805,0.414657593,-2.336044312,-0.510543823,361106.6473,4.581575573,1.371885624,-1.227087425
361106.7106,0.232406616,-2.68196106,-1.508804321,361106.6825,7.455181783,0.574998317,-1.912360052
361106.7407,-1.16847229,-3.255889893,-3.984466553,361106.7176,8.569057964,-0.844889986,-2.259405096
361106.7708,-0.891464233,-1.396606445,-4.058242798,361106.7527,1.582508909,2.347803136,-0.648064006
361106.8008,0.230651855,0.401824951,-2.73487854,361106.7878,-3.441321314,1.747019028,-0.179616101
361106.8309,0.114822388,1.223892212,-1.453735352,361106.8229,-4.657216805,-0.672541919,-0.578048702
361106.861,-0.248443604,0.911880493,-1.161712646,361106.858,-6.714126849,-1.636332726,0.049941461
361106.8911,-0.004821777,0.779327393,-0.323516846,361106.858,-6.714126849,-1.636332726,0.049941461
361106.9212,0.795089722,0.111633301,-0.856201172,361106.8931,-6.483823603,-2.59105627,1.461869576
361106.9513,1.504592896,-1.127822876,-1.700332642,361106.9282,-6.816550427,-3.742255854,1.083108681
361106.9814,1.046173096,-2.023727417,-0.884399414,361106.9633,-8.237833162,-2.913392771,-2.562714643
361107.0115,0.278457642,-2.583526611,0.700286865,361106.9984,-5.459448809,-2.465544683,-3.087613308
361107.0416,-0.098983765,-3.870788574,0.830657959,361107.0335,0.610690535,-2.912177571,-0.973636515
361107.0717,2.00378418,-6.902191162,-1.913070679,361107.0686,-1.482573257,0.986765366,-1.496598795
361107.1018,-1.45539856,-1.556900024,-0.624664307,361107.0686,-1.482573257,0.986765366,-1.496598795
361107.1318,0.322784424,-0.884963989,-0.860168457,361107.1038,-0.972267383,0.089644665,-1.744145743
361107.1619,-0.301010132,0.110748291,-0.969039917,361107.1388,-1.53827913,0.515224732,0.0170421
361107.192,0.082138062,-0.480407715,-0.926925659,361107.174,0.023853401,0.144655454,-0.179312767
361107.2221,0.005661011,-0.409042358,-0.918777466,361107.2091,0.053454437,-0.054195328,0.008929579
361107.2522,-0.010375977,-0.426101685,-0.917510986,361107.2442,0.112515893,-0.158880995,0.115757493
361107.2823,-0.035812378,-0.404800415,-0.923721313,361107.2793,0.230841738,-0.1571044,0.035015508
361107.3124,-0.080413818,-0.323654175,-0.942687988,361107.2793,0.230841738,-0.1571044,0.035015508
361107.3425,-0.063217163,-0.291946411,-0.95614624,361107.3144,0.70860325,-0.10625853,-0.077944866
361107.3726,0.065139771,-0.378982544,-1.019119263,361107.3495,1.532443611,-0.119551698,-0.383375621
361107.4027,0.282394409,-0.485214233,-1.092514038,361107.3846,2.534676351,-2.128132293,-0.820731653
361107.4328,0.371368408,-0.66998291,-1.252441406,361107.4197,3.151382966,-4.054178331,-0.250105181
361107.4629,1.543716431,-0.828964233,-1.523849487,361107.4549,3.174811327,-5.149116506,-1.959474302
361107.493,0.75138855,-0.874069214,-2.087921143,361107.4899,0.454534486,-0.983713916,-6.740287081
361107.5231,-0.337890625,-0.155136108,-1.163467407,361107.4899,0.454534486,-0.983713916,-6.740287081
361107.5532,-0.610931396,0.215759277,-1.404464722,361107.525,0.666954074,-0.286131892,-5.749611395
361107.5832,-0.31288147,0.441421509,-1.504425049,361107.5601,-0.30552583,-1.385740719,-3.003623332
361107.6133,1.038772583,0.353912354,-0.914932251,361107.5953,-2.009735342,-2.227124654,-2.384269801
361107.6434,0.960647583,-0.013748169,-0.798461914,361107.6304,-2.468358846,-3.546112708,-3.832130883
361107.6735,1.064498901,-0.232208252,-0.495361328,361107.6655,-2.441512584,-3.749947596,-4.167970144
361107.7036,0.750961304,-0.791381836,-0.889190674,361107.7006,-2.499412369,-2.429787485,-2.82256007
361107.7337,0.846969604,-1.566345215,-0.693359375,361107.7006,-2.499412369,-2.429787485,-2.82256007
361107.7638,0.026885986,-2.183547974,0.191497803,361107.7357,-3.115984762,-2.642060332,-1.752968263
361107.7939,0.854125977,-2.421020508,0.988296509,361107.7708,-1.526194237,-2.560211272,-0.10927163
361107.824,1.117416382,-1.898757935,1.678741455,361107.8059,0.640421,-2.3307882,-1.639391633
361107.8541,-3.624145508,-4.770339966,-5.192245483,361107.841,2.903215235,0.788323646,-1.976418398
361107.8841,-0.203109741,-0.47505188,-1.511489868,361107.8761,0.729470183,-0.263110196,0.004884237
361107.9142,-0.373016357,-0.523544312,-0.896224976,361107.9112,0.322835844,-0.392873785,0.18653526
361107.9443,-0.050888062,-0.404968262,-0.900909424,361107.9112,0.322835844,-0.392873785,0.18653526
361107.9744,-0.149978638,-0.456283569,-0.887771606,361107.9463,0.167493125,-0.195784684,0.07149975
361108.0045,0.005386353,-0.36517334,-0.930847168,361107.9814,0.012292619,0.114891699,-0.196568186
361108.0346,-0.066146851,-0.42326355,-0.922302246,361108.0165,0.275518928,-0.172520108,-0.056152752
361108.0647,-0.069381714,-0.320602417,-0.959442139,361108.0516,0.591616442,-0.160102853,-0.018647987
361108.0948,-0.042007446,-0.116943359,-1.074584961,361108.0868,1.969415616,0.070066437,-0.144865577
361108.1249,0.201675415,-0.172897339,-1.340255737,361108.1218,4.869121869,-1.889229433,0.022986809
361108.155,0.251617432,-0.641845703,-1.535263062,361108.1218,4.869121869,-1.889229433,0.022986809
361108.185,0.452316284,-3.028930664,-0.579086304,361108.157,7.027918599,-5.695393697,-0.572506397
361108.2152,-0.3177948,-1.431350708,-0.044448853,361108.1921,1.549355749,-2.243061277,-3.218550552
361108.2453,-0.491333008,-2.200164795,-1.619888306,361108.2272,3.65574786,-2.297670993,-1.458963801
361108.2754,0.052856445,-1.684631348,-2.596893311,361108.2623,3.450531591,-1.182674154,-1.172344817
361108.3055,0.028900146,-1.054122925,-2.727981567,361108.2974,2.341450698,0.985200226,-1.835916676
361108.3355,0.169540405,-0.377120972,-2.589019775,361108.3325,-0.817149968,0.923075602,-2.722007363
361108.3656,-0.192672729,0.288619995,-1.25541687,361108.3325,-0.817149968,0.923075602,-2.722007363
361108.3957,-0.426864624,0.539352417,0.015136719,361108.3676,-3.293304951,0.705731297,-3.029294075
361108.4258,-0.353225708,0.518707275,0.561416626,361108.4027,-4.136318474,-0.134631582,-2.117398156
361108.4559,-0.45803833,0.080749512,0.635314941,361108.4379,-4.487020038,-1.334402431,-1.917074913
361108.486,-1.161270142,-0.643173218,0.995101929,361108.4729,-4.702555524,-1.414928432,-1.001495044
361108.5161,-0.614761353,-1.183380127,1.179504395,361108.5081,-3.058554758,-2.920189691,2.835326998
361108.5462,0.347167969,-2.013900757,0.688461304,361108.5432,-2.325216068,-1.019320114,2.531508254
361108.5763,1.194900513,-1.940322876,1.032180786,361108.5432,-2.325216068,-1.019320114,2.531508254
361108.6064,-0.181365967,-1.085403442,2.20993042,361108.5783,-0.918386308,-1.386087463,-0.363371287
361108.6365,0.067321777,0.391220093,-0.287628174,361108.6134,-4.650047042,1.721213263,-1.290767069
361108.6666,0.031219482,-0.166534424,-0.990325928,361108.6485,-1.71769576,-0.194401172,0.467784778
361108.6967,-0.140426636,-0.250228882,-0.959869385,361108.6836,-0.265779748,0.084727405,-0.06117068
361108.7267,-0.070144653,-0.579193115,-0.837142944,361108.7187,-0.301393669,0.068973475,0.097102848
361108.7568,-0.082946777,-0.39289856,-0.932006836,361108.7538,-0.473420027,0.271061063,-0.184254262
361108.7869,-0.019104004,-0.32522583,-0.952407837,361108.7538,-0.473420027,0.271061063,-0.184254262
361108.817,-0.041213989,-0.308349609,-0.973632813,361108.7889,0.073976223,0.080234119,-0.03624509
361108.8471,-0.070587158,-0.251205444,-1.026000977,361108.824,0.767575224,-0.023450199,0.008145545
361108.8772,-0.052322388,-0.058868408,-1.032623291,361108.8591,2.180162205,0.508172415,-0.350050421
361108.9073,0.247558594,-0.461471558,-1.387039185,361108.8942,4.77591496,-0.227799343,-0.345788032
361108.9374,-0.377868652,-1.705841064,-0.113586426,361108.9294,6.207419439,-0.920022821,-0.823572181
361108.9675,-0.421173096,-3.258590698,-0.993225098,361108.9644,2.372224589,1.668304774,-0.142121722
361108.9976,0.115722656,-2.060256958,-0.527389526,361108.9644,2.372224589,1.668304774,-0.142121722
361109.0276,0.176040649,-2.79095459,-2.581390381,361108.9996,5.148841668,0.656276928,0.479945837
361109.0577,0.136962891,-2.017364502,-3.179397583,361109.0346,4.687520915,1.095463351,-0.125457524
361109.0878,-0.079574585,-0.81791687,-3.058670044,361109.0698,2.681644493,1.221530207,-0.94964596
361109.1179,-0.286315918,0.200180054,-2.455780029,361109.1049,-0.487572598,1.553059674,-1.552406667
361109.148,-0.419815063,0.94569397,-0.982437134,361109.14,-3.893885594,0.957395227,-1.437289398
361109.1781,-0.407073975,1.13432312,0.671020508,361109.1751,-4.242795916,-0.323089111,-0.829251105
361109.2082,-0.536300659,0.711044312,0.847122192,361109.1751,-4.242795916,-0.323089111,-0.829251105
361109.2383,-0.985412598,-0.217758179,0.123291016,361109.2102,-3.331680037,-1.175683356,-0.123354959
361109.2684,-0.419082642,-0.620162964,0.591140747,361109.2453,-4.097233922,-1.193683662,1.430921247
361109.2985,-0.188735962,-0.999023438,0.928924561,361109.2804,-3.331914928,-2.999185441,3.167674055
361109.3286,1.37651062,-1.677108765,0.195571899,361109.3155,-2.962617043,-0.7614907,1.445435742
361109.3587,0.641876221,-1.603393555,1.480697632,361109.3506,-1.253633016,-0.693488213,-1.120037138
361109.3887,-0.528503418,-3.840087891,-2.29864502,361109.3857,-4.650042249,3.523217246,-2.060733811
